
File Name : 	C5231001.D00

File Information
	Detector Type:	TGA-50H
	File Name:	C5231001.D00
	Collected Date:	12/05/23
	Collected Time:	10:01:39
	Sample Name:	Ac Laurico
	Sample Weight:	17.84	[mg]
	Cell Type:	Platinum
	Atmospher:	Nitrogen
	Gas Flow:	20.00	[ml/min]
	Operator:	L
	Memo:	Vc 10C/min Tf 900C N2/N2 20ml/min

Temp Program
	Temp Rate	Hold Temp	Hold Time
	deg/min	deg	min
	10.0	900.0	0.

Data
	Time	Temp	TGA
	sec	C	mg
	0.0000	34.44	17.84
	1.000	34.51	17.84
	2.000	34.61	17.84
	3.000	34.70	17.84
	4.000	34.65	17.85
	5.000	34.64	17.85
	6.000	34.67	17.85
	7.000	34.72	17.85
	8.000	34.67	17.85
	9.000	34.57	17.85
	10.00	34.64	17.85
	11.00	34.55	17.85
	12.00	34.57	17.85
	13.00	34.70	17.85
	14.00	34.72	17.85
	15.00	34.75	17.86
	16.00	34.79	17.86
	17.00	35.01	17.86
	18.00	35.06	17.86
	19.00	35.17	17.86
	20.00	35.37	17.86
	21.00	35.20	17.86
	22.00	35.23	17.86
	23.00	35.41	17.86
	24.00	35.61	17.86
	25.00	35.64	17.86
	26.00	35.91	17.86
	27.00	35.96	17.86
	28.00	36.00	17.86
	29.00	36.00	17.86
	30.00	36.12	17.86
	31.00	36.26	17.86
	32.00	36.46	17.86
	33.00	36.60	17.86
	34.00	36.65	17.86
	35.00	36.60	17.86
	36.00	36.76	17.86
	37.00	36.98	17.86
	38.00	37.15	17.86
	39.00	37.21	17.86
	40.00	37.27	17.86
	41.00	37.44	17.86
	42.00	37.60	17.86
	43.00	37.68	17.86
	44.00	37.87	17.86
	45.00	38.05	17.86
	46.00	38.33	17.86
	47.00	38.48	17.86
	48.00	38.47	17.86
	49.00	38.58	17.86
	50.00	38.60	17.86
	51.00	38.70	17.86
	52.00	38.85	17.86
	53.00	39.02	17.86
	54.00	39.07	17.86
	55.00	39.22	17.86
	56.00	39.23	17.86
	57.00	39.47	17.86
	58.00	39.73	17.86
	59.00	39.81	17.86
	60.00	40.00	17.86
	61.00	40.04	17.86
	62.00	40.07	17.86
	63.00	40.24	17.86
	64.00	40.40	17.86
	65.00	40.48	17.86
	66.00	40.71	17.86
	67.00	40.79	17.86
	68.00	40.93	17.86
	69.00	40.99	17.87
	70.00	41.10	17.87
	71.00	41.41	17.87
	72.00	41.52	17.87
	73.00	41.68	17.87
	74.00	41.82	17.87
	75.00	41.90	17.87
	76.00	42.03	17.87
	77.00	42.39	17.87
	78.00	42.43	17.87
	79.00	42.64	17.87
	80.00	42.77	17.87
	81.00	42.88	17.87
	82.00	42.91	17.87
	83.00	43.22	17.87
	84.00	43.40	17.87
	85.00	43.54	17.87
	86.00	43.80	17.87
	87.00	43.81	17.87
	88.00	44.06	17.87
	89.00	44.17	17.87
	90.00	44.27	17.87
	91.00	44.48	17.87
	92.00	44.82	17.87
	93.00	45.04	17.87
	94.00	45.20	17.87
	95.00	45.33	17.87
	96.00	45.63	17.87
	97.00	45.73	17.87
	98.00	45.99	17.87
	99.00	46.13	17.87
	100.0	46.27	17.87
	101.0	46.49	17.87
	102.0	46.67	17.87
	103.0	47.01	17.87
	104.0	47.10	17.87
	105.0	47.16	17.87
	106.0	47.41	17.87
	107.0	47.60	17.87
	108.0	47.82	17.87
	109.0	47.91	17.87
	110.0	48.00	17.87
	111.0	48.14	17.87
	112.0	48.28	17.87
	113.0	48.53	17.87
	114.0	48.73	17.87
	115.0	48.94	17.87
	116.0	49.00	17.87
	117.0	49.17	17.87
	118.0	49.39	17.87
	119.0	49.62	17.87
	120.0	49.75	17.87
	121.0	49.90	17.87
	122.0	50.12	17.87
	123.0	50.43	17.87
	124.0	50.64	17.87
	125.0	50.74	17.87
	126.0	50.79	17.87
	127.0	51.09	17.87
	128.0	51.17	17.87
	129.0	51.37	17.87
	130.0	51.58	17.87
	131.0	51.73	17.87
	132.0	51.72	17.87
	133.0	51.97	17.87
	134.0	52.11	17.87
	135.0	52.19	17.87
	136.0	52.55	17.87
	137.0	52.68	17.87
	138.0	52.93	17.87
	139.0	52.91	17.87
	140.0	52.98	17.87
	141.0	53.12	17.87
	142.0	53.31	17.87
	143.0	53.51	17.87
	144.0	53.68	17.87
	145.0	53.77	17.87
	146.0	53.97	17.87
	147.0	54.12	17.87
	148.0	54.39	17.87
	149.0	54.57	17.87
	150.0	54.68	17.87
	151.0	54.77	17.87
	152.0	54.91	17.87
	153.0	55.15	17.87
	154.0	55.36	17.87
	155.0	55.39	17.87
	156.0	55.44	17.87
	157.0	55.55	17.87
	158.0	55.80	17.87
	159.0	55.82	17.87
	160.0	55.91	17.87
	161.0	56.24	17.87
	162.0	56.34	17.87
	163.0	56.71	17.87
	164.0	56.74	17.87
	165.0	57.01	17.87
	166.0	57.09	17.87
	167.0	57.19	17.87
	168.0	57.45	17.87
	169.0	57.57	17.87
	170.0	57.65	17.87
	171.0	57.91	17.87
	172.0	58.00	17.87
	173.0	58.09	17.87
	174.0	58.31	17.87
	175.0	58.47	17.87
	176.0	58.66	17.87
	177.0	58.89	17.87
	178.0	58.96	17.87
	179.0	59.11	17.87
	180.0	59.25	17.87
	181.0	59.46	17.87
	182.0	59.58	17.87
	183.0	59.66	17.87
	184.0	59.83	17.87
	185.0	60.04	17.87
	186.0	60.10	17.87
	187.0	60.24	17.87
	188.0	60.35	17.87
	189.0	60.66	17.87
	190.0	60.70	17.87
	191.0	60.77	17.87
	192.0	61.08	17.87
	193.0	61.16	17.87
	194.0	61.25	17.87
	195.0	61.38	17.87
	196.0	61.55	17.87
	197.0	61.61	17.87
	198.0	61.84	17.87
	199.0	61.95	17.87
	200.0	62.06	17.87
	201.0	62.17	17.87
	202.0	62.26	17.87
	203.0	62.45	17.87
	204.0	62.57	17.87
	205.0	62.74	17.87
	206.0	62.93	17.87
	207.0	62.95	17.88
	208.0	63.14	17.88
	209.0	63.36	17.88
	210.0	63.46	17.88
	211.0	63.69	17.88
	212.0	63.83	17.88
	213.0	63.96	17.88
	214.0	64.03	17.88
	215.0	64.13	17.88
	216.0	64.27	17.88
	217.0	64.48	17.88
	218.0	64.67	17.88
	219.0	64.84	17.88
	220.0	65.09	17.88
	221.0	65.22	17.88
	222.0	65.41	17.88
	223.0	65.67	17.88
	224.0	65.90	17.88
	225.0	66.04	17.88
	226.0	66.12	17.88
	227.0	66.31	17.88
	228.0	66.45	17.88
	229.0	66.54	17.88
	230.0	66.69	17.88
	231.0	66.94	17.88
	232.0	67.07	17.88
	233.0	67.20	17.88
	234.0	67.36	17.88
	235.0	67.47	17.88
	236.0	67.80	17.88
	237.0	67.90	17.88
	238.0	68.16	17.88
	239.0	68.31	17.88
	240.0	68.54	17.88
	241.0	68.68	17.88
	242.0	68.70	17.88
	243.0	68.84	17.88
	244.0	69.14	17.88
	245.0	69.35	17.88
	246.0	69.53	17.88
	247.0	69.78	17.88
	248.0	69.87	17.88
	249.0	70.15	17.88
	250.0	70.28	17.88
	251.0	70.45	17.88
	252.0	70.51	17.88
	253.0	70.62	17.88
	254.0	70.85	17.88
	255.0	70.94	17.88
	256.0	71.12	17.88
	257.0	71.28	17.88
	258.0	71.54	17.88
	259.0	71.81	17.88
	260.0	72.14	17.88
	261.0	72.25	17.88
	262.0	72.40	17.88
	263.0	72.53	17.88
	264.0	72.74	17.88
	265.0	73.00	17.88
	266.0	73.21	17.88
	267.0	73.34	17.89
	268.0	73.51	17.89
	269.0	73.61	17.89
	270.0	73.85	17.89
	271.0	73.99	17.89
	272.0	74.11	17.89
	273.0	74.40	17.89
	274.0	74.56	17.89
	275.0	74.84	17.89
	276.0	74.97	17.89
	277.0	75.26	17.89
	278.0	75.30	17.89
	279.0	75.44	17.89
	280.0	75.75	17.89
	281.0	75.93	17.89
	282.0	76.08	17.89
	283.0	76.23	17.89
	284.0	76.54	17.89
	285.0	76.60	17.89
	286.0	76.80	17.89
	287.0	76.85	17.89
	288.0	77.14	17.89
	289.0	77.41	17.89
	290.0	77.62	17.89
	291.0	77.88	17.88
	292.0	78.18	17.88
	293.0	78.36	17.88
	294.0	78.65	17.88
	295.0	78.73	17.88
	296.0	79.03	17.88
	297.0	79.20	17.88
	298.0	79.39	17.88
	299.0	79.47	17.88
	300.0	79.70	17.88
	301.0	79.90	17.88
	302.0	80.11	17.88
	303.0	80.30	17.88
	304.0	80.57	17.88
	305.0	80.74	17.88
	306.0	80.93	17.88
	307.0	81.05	17.88
	308.0	81.24	17.88
	309.0	81.56	17.88
	310.0	81.73	17.88
	311.0	81.84	17.88
	312.0	81.96	17.88
	313.0	82.14	17.88
	314.0	82.41	17.88
	315.0	82.49	17.88
	316.0	82.68	17.88
	317.0	82.84	17.88
	318.0	83.05	17.88
	319.0	83.28	17.88
	320.0	83.30	17.88
	321.0	83.53	17.88
	322.0	83.64	17.88
	323.0	83.70	17.88
	324.0	83.94	17.88
	325.0	84.10	17.88
	326.0	84.24	17.88
	327.0	84.42	17.88
	328.0	84.56	17.88
	329.0	84.74	17.88
	330.0	84.95	17.88
	331.0	84.92	17.88
	332.0	85.01	17.88
	333.0	85.16	17.88
	334.0	85.21	17.88
	335.0	85.35	17.88
	336.0	85.52	17.88
	337.0	85.54	17.88
	338.0	85.60	17.88
	339.0	85.89	17.88
	340.0	86.09	17.88
	341.0	86.16	17.88
	342.0	86.35	17.88
	343.0	86.46	17.88
	344.0	86.53	17.88
	345.0	86.61	17.88
	346.0	86.62	17.88
	347.0	86.82	17.88
	348.0	86.96	17.88
	349.0	87.12	17.88
	350.0	87.22	17.88
	351.0	87.24	17.88
	352.0	87.28	17.88
	353.0	87.42	17.88
	354.0	87.58	17.88
	355.0	87.61	17.88
	356.0	87.82	17.88
	357.0	87.92	17.88
	358.0	88.06	17.88
	359.0	88.26	17.88
	360.0	88.34	17.88
	361.0	88.49	17.88
	362.0	88.60	17.88
	363.0	88.68	17.88
	364.0	88.82	17.88
	365.0	89.07	17.88
	366.0	89.28	17.88
	367.0	89.26	17.88
	368.0	89.51	17.88
	369.0	89.76	17.88
	370.0	89.88	17.88
	371.0	89.96	17.88
	372.0	90.06	17.88
	373.0	90.28	17.88
	374.0	90.54	17.88
	375.0	90.62	17.88
	376.0	90.76	17.88
	377.0	90.82	17.88
	378.0	91.11	17.88
	379.0	91.26	17.88
	380.0	91.50	17.88
	381.0	91.58	17.88
	382.0	91.76	17.88
	383.0	91.98	17.88
	384.0	92.12	17.88
	385.0	92.38	17.88
	386.0	92.54	17.88
	387.0	92.75	17.88
	388.0	93.08	17.88
	389.0	93.26	17.88
	390.0	93.35	17.88
	391.0	93.57	17.88
	392.0	93.69	17.88
	393.0	93.97	17.88
	394.0	94.20	17.88
	395.0	94.45	17.88
	396.0	94.64	17.88
	397.0	94.78	17.88
	398.0	94.95	17.88
	399.0	95.27	17.88
	400.0	95.31	17.88
	401.0	95.52	17.88
	402.0	95.67	17.88
	403.0	95.87	17.88
	404.0	96.12	17.88
	405.0	96.33	17.88
	406.0	96.47	17.88
	407.0	96.71	17.88
	408.0	96.90	17.88
	409.0	96.98	17.88
	410.0	97.27	17.88
	411.0	97.45	17.88
	412.0	97.57	17.88
	413.0	97.82	17.88
	414.0	97.91	17.88
	415.0	98.05	17.88
	416.0	98.17	17.88
	417.0	98.36	17.88
	418.0	98.64	17.88
	419.0	98.88	17.88
	420.0	99.15	17.88
	421.0	99.36	17.88
	422.0	99.53	17.88
	423.0	99.69	17.88
	424.0	99.81	17.88
	425.0	99.97	17.88
	426.0	100.2	17.88
	427.0	100.4	17.88
	428.0	100.6	17.88
	429.0	100.8	17.88
	430.0	100.9	17.88
	431.0	101.0	17.88
	432.0	101.1	17.88
	433.0	101.3	17.88
	434.0	101.4	17.88
	435.0	101.6	17.88
	436.0	101.8	17.88
	437.0	101.8	17.88
	438.0	102.0	17.88
	439.0	102.2	17.88
	440.0	102.3	17.88
	441.0	102.4	17.88
	442.0	102.5	17.88
	443.0	102.7	17.88
	444.0	102.8	17.88
	445.0	103.0	17.88
	446.0	103.2	17.88
	447.0	103.3	17.88
	448.0	103.4	17.88
	449.0	103.6	17.88
	450.0	103.8	17.88
	451.0	103.9	17.88
	452.0	104.0	17.88
	453.0	104.0	17.88
	454.0	104.2	17.88
	455.0	104.3	17.88
	456.0	104.5	17.88
	457.0	104.6	17.88
	458.0	104.7	17.88
	459.0	104.8	17.88
	460.0	105.0	17.88
	461.0	105.1	17.88
	462.0	105.2	17.88
	463.0	105.4	17.88
	464.0	105.5	17.88
	465.0	105.7	17.88
	466.0	105.8	17.88
	467.0	106.0	17.88
	468.0	106.2	17.88
	469.0	106.4	17.88
	470.0	106.6	17.88
	471.0	106.7	17.88
	472.0	106.9	17.88
	473.0	107.0	17.88
	474.0	107.2	17.88
	475.0	107.4	17.88
	476.0	107.5	17.88
	477.0	107.6	17.88
	478.0	107.8	17.88
	479.0	108.1	17.88
	480.0	108.2	17.88
	481.0	108.3	17.88
	482.0	108.3	17.88
	483.0	108.6	17.88
	484.0	108.7	17.88
	485.0	108.9	17.88
	486.0	109.0	17.88
	487.0	109.2	17.88
	488.0	109.3	17.88
	489.0	109.5	17.88
	490.0	109.7	17.88
	491.0	109.9	17.88
	492.0	110.1	17.88
	493.0	110.3	17.88
	494.0	110.6	17.88
	495.0	110.6	17.88
	496.0	110.8	17.88
	497.0	111.0	17.88
	498.0	111.2	17.88
	499.0	111.4	17.88
	500.0	111.6	17.88
	501.0	111.8	17.88
	502.0	111.9	17.88
	503.0	112.1	17.88
	504.0	112.4	17.88
	505.0	112.5	17.88
	506.0	112.6	17.88
	507.0	112.7	17.88
	508.0	112.9	17.88
	509.0	113.2	17.88
	510.0	113.3	17.88
	511.0	113.4	17.88
	512.0	113.8	17.88
	513.0	114.0	17.88
	514.0	114.3	17.88
	515.0	114.4	17.88
	516.0	114.5	17.88
	517.0	114.5	17.88
	518.0	114.7	17.88
	519.0	115.0	17.88
	520.0	115.2	17.88
	521.0	115.4	17.88
	522.0	115.5	17.88
	523.0	115.7	17.88
	524.0	115.8	17.88
	525.0	116.0	17.88
	526.0	116.2	17.88
	527.0	116.4	17.88
	528.0	116.5	17.88
	529.0	116.8	17.88
	530.0	116.9	17.88
	531.0	117.1	17.88
	532.0	117.3	17.88
	533.0	117.4	17.88
	534.0	117.7	17.88
	535.0	117.8	17.88
	536.0	118.0	17.88
	537.0	118.1	17.88
	538.0	118.3	17.87
	539.0	118.5	17.87
	540.0	118.6	17.87
	541.0	118.8	17.87
	542.0	118.9	17.87
	543.0	119.0	17.87
	544.0	119.2	17.87
	545.0	119.5	17.87
	546.0	119.6	17.87
	547.0	119.8	17.87
	548.0	120.0	17.87
	549.0	120.2	17.87
	550.0	120.3	17.87
	551.0	120.4	17.87
	552.0	120.6	17.87
	553.0	120.8	17.87
	554.0	121.0	17.87
	555.0	121.0	17.87
	556.0	121.1	17.87
	557.0	121.2	17.87
	558.0	121.4	17.87
	559.0	121.6	17.87
	560.0	121.7	17.87
	561.0	121.8	17.87
	562.0	122.1	17.87
	563.0	122.3	17.87
	564.0	122.4	17.87
	565.0	122.5	17.87
	566.0	122.6	17.87
	567.0	122.7	17.87
	568.0	122.9	17.87
	569.0	123.0	17.87
	570.0	123.2	17.87
	571.0	123.3	17.87
	572.0	123.5	17.87
	573.0	123.7	17.87
	574.0	123.9	17.87
	575.0	124.0	17.87
	576.0	124.2	17.87
	577.0	124.4	17.87
	578.0	124.5	17.87
	579.0	124.6	17.87
	580.0	124.7	17.87
	581.0	124.9	17.87
	582.0	125.2	17.87
	583.0	125.3	17.87
	584.0	125.5	17.87
	585.0	125.7	17.87
	586.0	125.8	17.87
	587.0	126.0	17.87
	588.0	126.2	17.87
	589.0	126.4	17.87
	590.0	126.5	17.87
	591.0	126.7	17.87
	592.0	126.9	17.87
	593.0	127.1	17.87
	594.0	127.3	17.87
	595.0	127.3	17.87
	596.0	127.6	17.87
	597.0	127.7	17.87
	598.0	127.9	17.87
	599.0	128.0	17.87
	600.0	128.2	17.87
	601.0	128.5	17.87
	602.0	128.7	17.87
	603.0	128.8	17.87
	604.0	129.0	17.86
	605.0	129.2	17.86
	606.0	129.4	17.86
	607.0	129.6	17.86
	608.0	129.8	17.86
	609.0	130.0	17.86
	610.0	130.2	17.86
	611.0	130.3	17.86
	612.0	130.4	17.86
	613.0	130.6	17.86
	614.0	130.8	17.86
	615.0	131.0	17.86
	616.0	131.1	17.86
	617.0	131.3	17.86
	618.0	131.5	17.86
	619.0	131.6	17.86
	620.0	131.8	17.86
	621.0	132.0	17.86
	622.0	132.2	17.86
	623.0	132.2	17.86
	624.0	132.4	17.86
	625.0	132.6	17.86
	626.0	132.7	17.86
	627.0	132.9	17.86
	628.0	133.0	17.86
	629.0	133.3	17.86
	630.0	133.4	17.86
	631.0	133.6	17.86
	632.0	133.8	17.86
	633.0	134.0	17.86
	634.0	134.1	17.86
	635.0	134.4	17.86
	636.0	134.6	17.85
	637.0	134.8	17.85
	638.0	134.9	17.85
	639.0	134.9	17.85
	640.0	135.1	17.85
	641.0	135.2	17.85
	642.0	135.3	17.85
	643.0	135.5	17.85
	644.0	135.7	17.85
	645.0	135.9	17.85
	646.0	136.1	17.85
	647.0	136.2	17.85
	648.0	136.3	17.85
	649.0	136.5	17.85
	650.0	136.6	17.85
	651.0	136.8	17.85
	652.0	137.0	17.85
	653.0	137.1	17.85
	654.0	137.3	17.85
	655.0	137.5	17.85
	656.0	137.6	17.85
	657.0	137.7	17.85
	658.0	137.9	17.85
	659.0	138.0	17.85
	660.0	138.1	17.85
	661.0	138.3	17.85
	662.0	138.5	17.84
	663.0	138.7	17.84
	664.0	138.9	17.84
	665.0	139.0	17.84
	666.0	139.1	17.84
	667.0	139.2	17.84
	668.0	139.4	17.84
	669.0	139.6	17.84
	670.0	139.8	17.84
	671.0	140.1	17.84
	672.0	140.2	17.84
	673.0	140.3	17.84
	674.0	140.4	17.84
	675.0	140.6	17.84
	676.0	140.9	17.84
	677.0	141.0	17.84
	678.0	141.3	17.84
	679.0	141.4	17.84
	680.0	141.7	17.84
	681.0	141.9	17.84
	682.0	142.1	17.84
	683.0	142.2	17.83
	684.0	142.4	17.83
	685.0	142.4	17.83
	686.0	142.8	17.83
	687.0	142.9	17.83
	688.0	143.0	17.83
	689.0	143.1	17.83
	690.0	143.2	17.83
	691.0	143.4	17.83
	692.0	143.5	17.83
	693.0	143.8	17.83
	694.0	143.9	17.83
	695.0	144.1	17.83
	696.0	144.1	17.83
	697.0	144.4	17.83
	698.0	144.5	17.83
	699.0	144.7	17.82
	700.0	144.8	17.82
	701.0	145.0	17.82
	702.0	145.1	17.82
	703.0	145.3	17.82
	704.0	145.5	17.82
	705.0	145.7	17.82
	706.0	145.9	17.82
	707.0	146.1	17.82
	708.0	146.2	17.82
	709.0	146.4	17.82
	710.0	146.6	17.82
	711.0	146.8	17.82
	712.0	146.9	17.81
	713.0	147.1	17.81
	714.0	147.3	17.81
	715.0	147.5	17.81
	716.0	147.7	17.81
	717.0	147.8	17.81
	718.0	148.0	17.81
	719.0	148.1	17.81
	720.0	148.4	17.81
	721.0	148.5	17.81
	722.0	148.7	17.81
	723.0	148.8	17.80
	724.0	149.0	17.80
	725.0	149.1	17.80
	726.0	149.2	17.80
	727.0	149.4	17.80
	728.0	149.7	17.80
	729.0	149.8	17.80
	730.0	150.0	17.80
	731.0	150.2	17.80
	732.0	150.4	17.80
	733.0	150.5	17.79
	734.0	150.6	17.79
	735.0	150.9	17.79
	736.0	151.0	17.79
	737.0	151.2	17.79
	738.0	151.4	17.79
	739.0	151.6	17.79
	740.0	151.7	17.79
	741.0	152.0	17.79
	742.0	152.1	17.78
	743.0	152.3	17.78
	744.0	152.4	17.78
	745.0	152.5	17.78
	746.0	152.8	17.78
	747.0	152.9	17.78
	748.0	153.1	17.78
	749.0	153.3	17.78
	750.0	153.5	17.77
	751.0	153.5	17.77
	752.0	153.7	17.77
	753.0	153.9	17.77
	754.0	154.0	17.77
	755.0	154.2	17.77
	756.0	154.4	17.77
	757.0	154.6	17.76
	758.0	154.8	17.76
	759.0	154.9	17.76
	760.0	155.1	17.76
	761.0	155.3	17.76
	762.0	155.4	17.76
	763.0	155.7	17.76
	764.0	155.8	17.76
	765.0	155.9	17.75
	766.0	156.1	17.75
	767.0	156.2	17.75
	768.0	156.3	17.75
	769.0	156.5	17.75
	770.0	156.6	17.75
	771.0	156.8	17.74
	772.0	156.8	17.74
	773.0	157.0	17.74
	774.0	157.1	17.74
	775.0	157.2	17.74
	776.0	157.3	17.74
	777.0	157.5	17.73
	778.0	157.7	17.73
	779.0	158.0	17.73
	780.0	158.1	17.73
	781.0	158.3	17.73
	782.0	158.3	17.73
	783.0	158.4	17.72
	784.0	158.7	17.72
	785.0	159.0	17.72
	786.0	159.1	17.72
	787.0	159.1	17.72
	788.0	159.3	17.72
	789.0	159.5	17.71
	790.0	159.6	17.71
	791.0	159.8	17.71
	792.0	160.0	17.71
	793.0	160.2	17.71
	794.0	160.2	17.70
	795.0	160.4	17.70
	796.0	160.7	17.70
	797.0	160.9	17.70
	798.0	161.0	17.70
	799.0	161.3	17.69
	800.0	161.4	17.69
	801.0	161.6	17.69
	802.0	161.8	17.69
	803.0	162.0	17.68
	804.0	162.3	17.68
	805.0	162.3	17.68
	806.0	162.5	17.68
	807.0	162.7	17.68
	808.0	163.1	17.67
	809.0	163.2	17.67
	810.0	163.4	17.67
	811.0	163.6	17.67
	812.0	163.8	17.67
	813.0	163.8	17.66
	814.0	164.1	17.66
	815.0	164.2	17.66
	816.0	164.5	17.66
	817.0	164.7	17.65
	818.0	164.9	17.65
	819.0	165.1	17.65
	820.0	165.2	17.65
	821.0	165.3	17.64
	822.0	165.6	17.64
	823.0	165.6	17.64
	824.0	165.7	17.63
	825.0	166.0	17.63
	826.0	166.1	17.63
	827.0	166.3	17.63
	828.0	166.5	17.62
	829.0	166.6	17.62
	830.0	166.7	17.62
	831.0	167.0	17.61
	832.0	167.2	17.61
	833.0	167.4	17.61
	834.0	167.5	17.61
	835.0	167.6	17.60
	836.0	167.8	17.60
	837.0	168.0	17.60
	838.0	168.2	17.59
	839.0	168.3	17.59
	840.0	168.5	17.59
	841.0	168.6	17.58
	842.0	168.8	17.58
	843.0	168.9	17.58
	844.0	169.0	17.57
	845.0	169.2	17.57
	846.0	169.3	17.57
	847.0	169.5	17.56
	848.0	169.6	17.56
	849.0	169.6	17.56
	850.0	169.7	17.55
	851.0	169.9	17.55
	852.0	170.1	17.55
	853.0	170.3	17.54
	854.0	170.5	17.54
	855.0	170.6	17.54
	856.0	170.7	17.53
	857.0	170.9	17.53
	858.0	171.1	17.53
	859.0	171.3	17.52
	860.0	171.4	17.52
	861.0	171.5	17.52
	862.0	171.6	17.51
	863.0	171.8	17.51
	864.0	172.0	17.50
	865.0	172.1	17.50
	866.0	172.3	17.50
	867.0	172.5	17.49
	868.0	172.7	17.49
	869.0	172.8	17.48
	870.0	173.0	17.48
	871.0	173.3	17.48
	872.0	173.5	17.47
	873.0	173.7	17.47
	874.0	173.8	17.46
	875.0	173.9	17.46
	876.0	174.1	17.46
	877.0	174.3	17.45
	878.0	174.5	17.45
	879.0	174.7	17.44
	880.0	174.8	17.44
	881.0	175.0	17.43
	882.0	175.2	17.43
	883.0	175.4	17.43
	884.0	175.6	17.42
	885.0	175.7	17.42
	886.0	175.9	17.41
	887.0	175.9	17.41
	888.0	176.0	17.40
	889.0	176.2	17.40
	890.0	176.5	17.39
	891.0	176.7	17.39
	892.0	176.8	17.38
	893.0	177.0	17.38
	894.0	177.2	17.37
	895.0	177.5	17.37
	896.0	177.6	17.36
	897.0	177.8	17.36
	898.0	177.9	17.35
	899.0	178.1	17.35
	900.0	178.2	17.34
	901.0	178.4	17.34
	902.0	178.5	17.33
	903.0	178.8	17.32
	904.0	179.0	17.32
	905.0	179.1	17.31
	906.0	179.3	17.31
	907.0	179.4	17.30
	908.0	179.6	17.30
	909.0	179.8	17.29
	910.0	180.0	17.29
	911.0	180.1	17.28
	912.0	180.4	17.27
	913.0	180.5	17.27
	914.0	180.6	17.26
	915.0	180.8	17.26
	916.0	180.9	17.25
	917.0	181.2	17.24
	918.0	181.3	17.24
	919.0	181.5	17.23
	920.0	181.6	17.23
	921.0	181.8	17.22
	922.0	182.0	17.21
	923.0	182.1	17.21
	924.0	182.4	17.20
	925.0	182.5	17.19
	926.0	182.7	17.19
	927.0	182.8	17.18
	928.0	183.0	17.17
	929.0	183.1	17.17
	930.0	183.2	17.16
	931.0	183.4	17.15
	932.0	183.6	17.14
	933.0	183.8	17.14
	934.0	183.9	17.13
	935.0	184.1	17.12
	936.0	184.1	17.12
	937.0	184.3	17.11
	938.0	184.5	17.10
	939.0	184.7	17.09
	940.0	184.9	17.09
	941.0	185.1	17.08
	942.0	185.3	17.07
	943.0	185.4	17.06
	944.0	185.5	17.06
	945.0	185.6	17.05
	946.0	185.8	17.04
	947.0	186.0	17.03
	948.0	186.2	17.02
	949.0	186.4	17.02
	950.0	186.7	17.01
	951.0	186.8	17.00
	952.0	187.0	16.99
	953.0	187.1	16.99
	954.0	187.2	16.98
	955.0	187.3	16.97
	956.0	187.4	16.97
	957.0	187.5	16.96
	958.0	187.7	16.95
	959.0	187.9	16.94
	960.0	188.1	16.93
	961.0	188.3	16.93
	962.0	188.5	16.92
	963.0	188.7	16.91
	964.0	188.8	16.90
	965.0	189.0	16.89
	966.0	189.2	16.88
	967.0	189.5	16.87
	968.0	189.5	16.86
	969.0	189.7	16.85
	970.0	189.9	16.84
	971.0	190.1	16.83
	972.0	190.2	16.82
	973.0	190.5	16.81
	974.0	190.6	16.80
	975.0	190.8	16.79
	976.0	191.0	16.78
	977.0	191.2	16.77
	978.0	191.3	16.76
	979.0	191.4	16.75
	980.0	191.5	16.74
	981.0	191.7	16.73
	982.0	191.9	16.72
	983.0	192.0	16.71
	984.0	192.2	16.70
	985.0	192.3	16.69
	986.0	192.5	16.68
	987.0	192.6	16.67
	988.0	192.7	16.66
	989.0	192.9	16.65
	990.0	193.2	16.64
	991.0	193.3	16.62
	992.0	193.6	16.61
	993.0	193.7	16.60
	994.0	194.0	16.59
	995.0	194.1	16.58
	996.0	194.1	16.57
	997.0	194.3	16.56
	998.0	194.5	16.54
	999.0	194.7	16.53
	1000.	194.9	16.52
	1001.	195.1	16.51
	1002.	195.2	16.49
	1003.	195.4	16.48
	1004.	195.5	16.47
	1005.	195.7	16.46
	1006.	195.9	16.45
	1007.	196.0	16.43
	1008.	196.2	16.42
	1009.	196.4	16.41
	1010.	196.6	16.39
	1011.	196.8	16.38
	1012.	196.9	16.37
	1013.	197.1	16.35
	1014.	197.2	16.34
	1015.	197.4	16.33
	1016.	197.6	16.31
	1017.	197.9	16.30
	1018.	198.0	16.28
	1019.	198.1	16.27
	1020.	198.3	16.26
	1021.	198.6	16.24
	1022.	198.7	16.23
	1023.	198.8	16.21
	1024.	199.0	16.20
	1025.	199.1	16.19
	1026.	199.2	16.17
	1027.	199.4	16.16
	1028.	199.6	16.14
	1029.	199.7	16.13
	1030.	200.0	16.11
	1031.	200.1	16.10
	1032.	200.2	16.08
	1033.	200.4	16.06
	1034.	200.6	16.05
	1035.	200.7	16.03
	1036.	201.0	16.02
	1037.	201.2	16.00
	1038.	201.4	15.99
	1039.	201.6	15.97
	1040.	201.7	15.95
	1041.	201.9	15.94
	1042.	202.0	15.92
	1043.	202.1	15.90
	1044.	202.3	15.89
	1045.	202.5	15.87
	1046.	202.7	15.85
	1047.	202.8	15.83
	1048.	202.9	15.82
	1049.	203.0	15.80
	1050.	203.1	15.78
	1051.	203.3	15.77
	1052.	203.5	15.75
	1053.	203.8	15.73
	1054.	204.0	15.71
	1055.	204.1	15.69
	1056.	204.2	15.67
	1057.	204.4	15.66
	1058.	204.5	15.64
	1059.	204.7	15.62
	1060.	204.9	15.60
	1061.	205.1	15.58
	1062.	205.3	15.56
	1063.	205.5	15.54
	1064.	205.5	15.52
	1065.	205.7	15.50
	1066.	205.9	15.48
	1067.	206.0	15.46
	1068.	206.2	15.44
	1069.	206.4	15.42
	1070.	206.6	15.40
	1071.	206.7	15.38
	1072.	206.9	15.36
	1073.	207.0	15.34
	1074.	207.1	15.32
	1075.	207.3	15.30
	1076.	207.5	15.28
	1077.	207.7	15.26
	1078.	207.7	15.24
	1079.	208.0	15.21
	1080.	208.2	15.19
	1081.	208.3	15.17
	1082.	208.5	15.15
	1083.	208.8	15.13
	1084.	209.0	15.11
	1085.	209.0	15.08
	1086.	209.2	15.06
	1087.	209.4	15.04
	1088.	209.6	15.01
	1089.	209.7	14.99
	1090.	209.9	14.97
	1091.	210.1	14.95
	1092.	210.2	14.92
	1093.	210.3	14.90
	1094.	210.5	14.87
	1095.	210.7	14.85
	1096.	210.9	14.82
	1097.	211.0	14.80
	1098.	211.2	14.78
	1099.	211.4	14.75
	1100.	211.5	14.73
	1101.	211.6	14.70
	1102.	211.7	14.68
	1103.	212.0	14.65
	1104.	212.1	14.63
	1105.	212.4	14.60
	1106.	212.5	14.57
	1107.	212.7	14.55
	1108.	212.8	14.52
	1109.	213.0	14.49
	1110.	213.1	14.47
	1111.	213.2	14.44
	1112.	213.4	14.41
	1113.	213.7	14.39
	1114.	213.8	14.36
	1115.	214.0	14.33
	1116.	214.0	14.30
	1117.	214.2	14.27
	1118.	214.4	14.25
	1119.	214.5	14.22
	1120.	214.7	14.19
	1121.	214.9	14.16
	1122.	215.1	14.13
	1123.	215.3	14.10
	1124.	215.4	14.07
	1125.	215.6	14.04
	1126.	215.8	14.01
	1127.	216.0	13.98
	1128.	216.2	13.95
	1129.	216.3	13.92
	1130.	216.4	13.89
	1131.	216.6	13.86
	1132.	216.8	13.83
	1133.	216.9	13.80
	1134.	217.1	13.77
	1135.	217.2	13.74
	1136.	217.4	13.71
	1137.	217.6	13.67
	1138.	217.7	13.64
	1139.	217.8	13.61
	1140.	217.9	13.58
	1141.	218.2	13.54
	1142.	218.4	13.51
	1143.	218.6	13.48
	1144.	218.8	13.44
	1145.	219.0	13.41
	1146.	219.2	13.37
	1147.	219.3	13.34
	1148.	219.5	13.31
	1149.	219.7	13.27
	1150.	219.9	13.23
	1151.	220.0	13.20
	1152.	220.3	13.17
	1153.	220.4	13.13
	1154.	220.6	13.09
	1155.	220.9	13.06
	1156.	221.0	13.02
	1157.	221.2	12.98
	1158.	221.3	12.95
	1159.	221.5	12.91
	1160.	221.7	12.87
	1161.	221.9	12.83
	1162.	222.0	12.80
	1163.	222.2	12.76
	1164.	222.4	12.72
	1165.	222.6	12.68
	1166.	222.8	12.64
	1167.	222.9	12.60
	1168.	223.0	12.56
	1169.	223.0	12.52
	1170.	223.3	12.48
	1171.	223.4	12.44
	1172.	223.7	12.40
	1173.	223.7	12.36
	1174.	223.9	12.32
	1175.	224.1	12.28
	1176.	224.3	12.24
	1177.	224.4	12.20
	1178.	224.6	12.16
	1179.	224.7	12.11
	1180.	225.0	12.07
	1181.	225.1	12.03
	1182.	225.2	11.99
	1183.	225.4	11.94
	1184.	225.5	11.90
	1185.	225.7	11.86
	1186.	225.9	11.81
	1187.	226.0	11.77
	1188.	226.1	11.72
	1189.	226.2	11.68
	1190.	226.5	11.64
	1191.	226.7	11.59
	1192.	226.7	11.55
	1193.	227.0	11.50
	1194.	227.2	11.46
	1195.	227.3	11.41
	1196.	227.6	11.36
	1197.	227.8	11.32
	1198.	227.9	11.27
	1199.	228.1	11.22
	1200.	228.2	11.17
	1201.	228.4	11.13
	1202.	228.4	11.08
	1203.	228.6	11.03
	1204.	228.7	10.98
	1205.	228.9	10.94
	1206.	229.0	10.89
	1207.	229.3	10.84
	1208.	229.5	10.79
	1209.	229.7	10.74
	1210.	229.9	10.68
	1211.	230.1	10.63
	1212.	230.3	10.58
	1213.	230.4	10.53
	1214.	230.5	10.48
	1215.	230.7	10.42
	1216.	230.8	10.37
	1217.	231.0	10.32
	1218.	231.1	10.27
	1219.	231.3	10.22
	1220.	231.5	10.16
	1221.	231.7	10.11
	1222.	231.9	10.06
	1223.	232.0	10.00
	1224.	232.1	9.948
	1225.	232.4	9.893
	1226.	232.5	9.838
	1227.	232.7	9.783
	1228.	232.8	9.728
	1229.	233.0	9.669
	1230.	233.1	9.612
	1231.	233.4	9.557
	1232.	233.5	9.500
	1233.	233.6	9.443
	1234.	233.7	9.385
	1235.	233.9	9.327
	1236.	234.1	9.269
	1237.	234.4	9.210
	1238.	234.5	9.150
	1239.	234.6	9.092
	1240.	234.8	9.034
	1241.	234.9	8.975
	1242.	235.2	8.916
	1243.	235.4	8.855
	1244.	235.5	8.794
	1245.	235.7	8.733
	1246.	235.8	8.672
	1247.	236.0	8.611
	1248.	236.2	8.548
	1249.	236.3	8.484
	1250.	236.5	8.420
	1251.	236.7	8.357
	1252.	236.8	8.294
	1253.	237.0	8.230
	1254.	237.2	8.166
	1255.	237.4	8.102
	1256.	237.5	8.037
	1257.	237.7	7.973
	1258.	237.9	7.907
	1259.	238.1	7.842
	1260.	238.2	7.776
	1261.	238.4	7.709
	1262.	238.6	7.642
	1263.	238.8	7.575
	1264.	239.0	7.509
	1265.	239.2	7.441
	1266.	239.4	7.374
	1267.	239.6	7.304
	1268.	239.7	7.235
	1269.	239.9	7.165
	1270.	240.1	7.096
	1271.	240.3	7.026
	1272.	240.6	6.957
	1273.	240.6	6.887
	1274.	240.8	6.816
	1275.	240.9	6.745
	1276.	241.0	6.675
	1277.	241.2	6.603
	1278.	241.4	6.530
	1279.	241.6	6.457
	1280.	241.7	6.384
	1281.	241.9	6.311
	1282.	242.1	6.229
	1283.	242.2	6.157
	1284.	242.4	6.083
	1285.	242.6	6.007
	1286.	242.6	5.933
	1287.	242.7	5.858
	1288.	242.9	5.781
	1289.	243.0	5.703
	1290.	243.2	5.622
	1291.	243.4	5.544
	1292.	243.6	5.466
	1293.	243.8	5.391
	1294.	243.9	5.315
	1295.	244.1	5.238
	1296.	244.3	5.162
	1297.	244.5	5.085
	1298.	244.6	5.010
	1299.	244.8	4.933
	1300.	244.9	4.854
	1301.	245.1	4.776
	1302.	245.2	4.697
	1303.	245.3	4.617
	1304.	245.6	4.536
	1305.	245.6	4.457
	1306.	245.7	4.377
	1307.	245.9	4.298
	1308.	246.1	4.220
	1309.	246.2	4.140
	1310.	246.4	4.061
	1311.	246.6	3.981
	1312.	246.7	3.900
	1313.	246.9	3.819
	1314.	247.0	3.738
	1315.	247.2	3.657
	1316.	247.5	3.575
	1317.	247.8	3.494
	1318.	247.9	3.413
	1319.	248.1	3.332
	1320.	248.3	3.250
	1321.	248.5	3.168
	1322.	248.8	3.088
	1323.	248.9	3.006
	1324.	249.0	2.923
	1325.	249.2	2.840
	1326.	249.3	2.757
	1327.	249.6	2.675
	1328.	249.7	2.592
	1329.	249.9	2.510
	1330.	250.1	2.428
	1331.	250.2	2.345
	1332.	250.4	2.260
	1333.	250.5	2.174
	1334.	250.6	2.086
	1335.	250.9	2.002
	1336.	251.1	1.918
	1337.	251.3	1.832
	1338.	251.5	1.747
	1339.	251.7	1.662
	1340.	251.8	1.578
	1341.	251.9	1.493
	1342.	252.1	1.409
	1343.	252.2	1.325
	1344.	252.4	1.243
	1345.	252.6	1.159
	1346.	252.6	1.077
	1347.	252.7	0.9955
	1348.	252.9	0.9134
	1349.	253.1	0.8310
	1350.	253.3	0.7526
	1351.	253.5	0.6750
	1352.	253.6	0.5965
	1353.	253.7	0.5215
	1354.	253.9	0.4555
	1355.	254.1	0.4019
	1356.	254.4	0.3552
	1357.	254.6	0.3169
	1358.	254.8	0.2872
	1359.	255.1	0.2626
	1360.	255.4	0.2425
	1361.	255.6	0.2262
	1362.	255.8	0.2122
	1363.	256.0	0.2008
	1364.	256.2	0.1917
	1365.	256.2	0.1844
	1366.	256.5	0.1781
	1367.	256.7	0.1726
	1368.	256.9	0.1684
	1369.	257.2	0.1645
	1370.	257.3	0.1614
	1371.	257.4	0.1595
	1372.	257.6	0.1569
	1373.	257.7	0.1546
	1374.	257.8	0.1524
	1375.	258.0	0.1505
	1376.	258.2	0.1489
	1377.	258.3	0.1479
	1378.	258.3	0.1459
	1379.	258.5	0.1449
	1380.	258.6	0.1442
	1381.	258.8	0.1434
	1382.	258.8	0.1426
	1383.	259.0	0.1416
	1384.	259.1	0.1409
	1385.	259.3	0.1404
	1386.	259.5	0.1395
	1387.	259.6	0.1391
	1388.	259.8	0.1387
	1389.	259.9	0.1384
	1390.	260.0	0.1379
	1391.	260.2	0.1376
	1392.	260.3	0.1370
	1393.	260.5	0.1368
	1394.	260.6	0.1364
	1395.	260.8	0.1363
	1396.	260.8	0.1359
	1397.	260.9	0.1357
	1398.	261.1	0.1356
	1399.	261.2	0.1354
	1400.	261.4	0.1349
	1401.	261.5	0.1347
	1402.	261.8	0.1345
	1403.	262.0	0.1343
	1404.	262.1	0.1340
	1405.	262.1	0.1340
	1406.	262.2	0.1336
	1407.	262.4	0.1334
	1408.	262.6	0.1331
	1409.	262.6	0.1330
	1410.	262.8	0.1330
	1411.	262.9	0.1327
	1412.	263.1	0.1324
	1413.	263.3	0.1324
	1414.	263.5	0.1320
	1415.	263.8	0.1321
	1416.	264.0	0.1318
	1417.	264.2	0.1322
	1418.	264.4	0.1322
	1419.	264.6	0.1320
	1420.	264.8	0.1317
	1421.	265.0	0.1313
	1422.	265.1	0.1314
	1423.	265.4	0.1312
	1424.	265.5	0.1309
	1425.	265.7	0.1309
	1426.	265.9	0.1306
	1427.	266.1	0.1303
	1428.	266.3	0.1300
	1429.	266.5	0.1296
	1430.	266.7	0.1295
	1431.	266.9	0.1297
	1432.	267.0	0.1294
	1433.	267.3	0.1294
	1434.	267.4	0.1294
	1435.	267.7	0.1291
	1436.	267.9	0.1285
	1437.	268.0	0.1287
	1438.	268.1	0.1285
	1439.	268.3	0.1285
	1440.	268.6	0.1283
	1441.	268.7	0.1285
	1442.	269.0	0.1285
	1443.	269.1	0.1286
	1444.	269.2	0.1281
	1445.	269.2	0.1281
	1446.	269.5	0.1276
	1447.	269.7	0.1274
	1448.	270.0	0.1273
	1449.	270.1	0.1278
	1450.	270.3	0.1277
	1451.	270.5	0.1275
	1452.	270.7	0.1277
	1453.	270.8	0.1280
	1454.	271.1	0.1280
	1455.	271.2	0.1279
	1456.	271.3	0.1279
	1457.	271.5	0.1279
	1458.	271.6	0.1279
	1459.	271.8	0.1280
	1460.	271.9	0.1271
	1461.	272.0	0.1268
	1462.	272.2	0.1266
	1463.	272.3	0.1265
	1464.	272.4	0.1262
	1465.	272.6	0.1262
	1466.	272.8	0.1260
	1467.	272.8	0.1261
	1468.	273.0	0.1260
	1469.	273.2	0.1257
	1470.	273.2	0.1258
	1471.	273.4	0.1257
	1472.	273.6	0.1258
	1473.	273.8	0.1256
	1474.	273.9	0.1256
	1475.	274.0	0.1260
	1476.	274.1	0.1258
	1477.	274.2	0.1256
	1478.	274.4	0.1254
	1479.	274.6	0.1254
	1480.	274.7	0.1256
	1481.	274.9	0.1259
	1482.	275.0	0.1259
	1483.	275.2	0.1255
	1484.	275.4	0.1257
	1485.	275.6	0.1258
	1486.	275.7	0.1258
	1487.	275.9	0.1256
	1488.	276.1	0.1256
	1489.	276.4	0.1253
	1490.	276.5	0.1251
	1491.	276.7	0.1251
	1492.	276.9	0.1250
	1493.	277.2	0.1247
	1494.	277.3	0.1249
	1495.	277.5	0.1249
	1496.	277.7	0.1249
	1497.	277.9	0.1249
	1498.	278.1	0.1250
	1499.	278.3	0.1249
	1500.	278.4	0.1248
	1501.	278.5	0.1248
	1502.	278.7	0.1244
	1503.	278.8	0.1249
	1504.	279.0	0.1251
	1505.	279.2	0.1254
	1506.	279.3	0.1255
	1507.	279.5	0.1255
	1508.	279.8	0.1254
	1509.	279.9	0.1252
	1510.	280.1	0.1250
	1511.	280.2	0.1249
	1512.	280.4	0.1249
	1513.	280.6	0.1249
	1514.	280.8	0.1249
	1515.	280.9	0.1248
	1516.	281.1	0.1249
	1517.	281.3	0.1247
	1518.	281.5	0.1245
	1519.	281.7	0.1243
	1520.	281.8	0.1242
	1521.	282.0	0.1244
	1522.	282.1	0.1248
	1523.	282.3	0.1248
	1524.	282.4	0.1250
	1525.	282.7	0.1253
	1526.	282.9	0.1253
	1527.	283.0	0.1253
	1528.	283.1	0.1252
	1529.	283.3	0.1248
	1530.	283.4	0.1243
	1531.	283.6	0.1242
	1532.	283.7	0.1243
	1533.	283.8	0.1245
	1534.	284.0	0.1244
	1535.	284.1	0.1242
	1536.	284.2	0.1241
	1537.	284.4	0.1241
	1538.	284.6	0.1239
	1539.	284.8	0.1238
	1540.	285.0	0.1237
	1541.	285.2	0.1236
	1542.	285.3	0.1236
	1543.	285.6	0.1236
	1544.	285.6	0.1236
	1545.	285.8	0.1234
	1546.	286.0	0.1234
	1547.	286.1	0.1234
	1548.	286.2	0.1234
	1549.	286.5	0.1235
	1550.	286.6	0.1238
	1551.	286.9	0.1237
	1552.	287.0	0.1237
	1553.	287.2	0.1239
	1554.	287.4	0.1238
	1555.	287.6	0.1241
	1556.	287.8	0.1240
	1557.	287.9	0.1240
	1558.	288.2	0.1238
	1559.	288.3	0.1237
	1560.	288.5	0.1237
	1561.	288.7	0.1236
	1562.	288.8	0.1237
	1563.	288.9	0.1238
	1564.	289.2	0.1236
	1565.	289.3	0.1235
	1566.	289.4	0.1229
	1567.	289.6	0.1234
	1568.	289.8	0.1236
	1569.	289.9	0.1234
	1570.	290.1	0.1235
	1571.	290.2	0.1232
	1572.	290.3	0.1233
	1573.	290.5	0.1232
	1574.	290.8	0.1230
	1575.	291.0	0.1234
	1576.	291.1	0.1235
	1577.	291.3	0.1231
	1578.	291.5	0.1235
	1579.	291.7	0.1236
	1580.	291.8	0.1237
	1581.	292.0	0.1237
	1582.	292.1	0.1237
	1583.	292.3	0.1235
	1584.	292.5	0.1235
	1585.	292.6	0.1233
	1586.	292.8	0.1233
	1587.	293.0	0.1232
	1588.	293.1	0.1233
	1589.	293.3	0.1232
	1590.	293.3	0.1228
	1591.	293.6	0.1229
	1592.	293.8	0.1229
	1593.	293.9	0.1233
	1594.	294.1	0.1233
	1595.	294.3	0.1235
	1596.	294.5	0.1239
	1597.	294.6	0.1239
	1598.	294.8	0.1243
	1599.	295.0	0.1238
	1600.	295.0	0.1237
	1601.	295.3	0.1237
	1602.	295.5	0.1234
	1603.	295.6	0.1230
	1604.	295.6	0.1232
	1605.	295.8	0.1232
	1606.	295.9	0.1236
	1607.	296.1	0.1237
	1608.	296.3	0.1236
	1609.	296.5	0.1234
	1610.	296.6	0.1231
	1611.	296.7	0.1231
	1612.	296.9	0.1234
	1613.	297.0	0.1232
	1614.	297.2	0.1230
	1615.	297.3	0.1232
	1616.	297.5	0.1232
	1617.	297.7	0.1234
	1618.	297.9	0.1235
	1619.	298.0	0.1235
	1620.	298.3	0.1235
	1621.	298.5	0.1234
	1622.	298.7	0.1234
	1623.	298.9	0.1233
	1624.	299.0	0.1235
	1625.	299.1	0.1237
	1626.	299.3	0.1238
	1627.	299.5	0.1234
	1628.	299.6	0.1236
	1629.	299.8	0.1237
	1630.	299.9	0.1236
	1631.	300.1	0.1233
	1632.	300.2	0.1228
	1633.	300.3	0.1228
	1634.	300.5	0.1226
	1635.	300.7	0.1227
	1636.	300.9	0.1224
	1637.	301.1	0.1228
	1638.	301.2	0.1224
	1639.	301.4	0.1224
	1640.	301.5	0.1224
	1641.	301.8	0.1224
	1642.	302.0	0.1223
	1643.	302.1	0.1224
	1644.	302.3	0.1226
	1645.	302.4	0.1228
	1646.	302.7	0.1228
	1647.	302.9	0.1224
	1648.	303.1	0.1225
	1649.	303.3	0.1225
	1650.	303.5	0.1226
	1651.	303.6	0.1231
	1652.	303.8	0.1233
	1653.	304.0	0.1235
	1654.	304.2	0.1235
	1655.	304.4	0.1236
	1656.	304.7	0.1235
	1657.	304.8	0.1234
	1658.	305.0	0.1231
	1659.	305.2	0.1233
	1660.	305.3	0.1229
	1661.	305.5	0.1227
	1662.	305.6	0.1226
	1663.	305.8	0.1224
	1664.	306.0	0.1222
	1665.	306.1	0.1226
	1666.	306.3	0.1229
	1667.	306.5	0.1232
	1668.	306.7	0.1229
	1669.	306.7	0.1227
	1670.	306.9	0.1229
	1671.	307.0	0.1227
	1672.	307.2	0.1221
	1673.	307.3	0.1221
	1674.	307.5	0.1219
	1675.	307.6	0.1216
	1676.	307.8	0.1217
	1677.	308.0	0.1218
	1678.	308.2	0.1220
	1679.	308.2	0.1221
	1680.	308.3	0.1223
	1681.	308.5	0.1222
	1682.	308.7	0.1221
	1683.	308.9	0.1219
	1684.	309.1	0.1218
	1685.	309.3	0.1219
	1686.	309.4	0.1217
	1687.	309.5	0.1217
	1688.	309.6	0.1216
	1689.	309.9	0.1214
	1690.	310.0	0.1216
	1691.	310.1	0.1215
	1692.	310.2	0.1211
	1693.	310.4	0.1210
	1694.	310.6	0.1212
	1695.	310.8	0.1213
	1696.	310.9	0.1213
	1697.	311.1	0.1213
	1698.	311.3	0.1212
	1699.	311.4	0.1212
	1700.	311.7	0.1215
	1701.	311.8	0.1214
	1702.	312.0	0.1213
	1703.	312.2	0.1215
	1704.	312.3	0.1214
	1705.	312.5	0.1214
	1706.	312.7	0.1216
	1707.	312.8	0.1217
	1708.	313.0	0.1219
	1709.	313.3	0.1219
	1710.	313.4	0.1220
	1711.	313.6	0.1220
	1712.	313.8	0.1218
	1713.	313.9	0.1216
	1714.	314.1	0.1216
	1715.	314.3	0.1217
	1716.	314.5	0.1215
	1717.	314.6	0.1218
	1718.	314.7	0.1215
	1719.	314.9	0.1215
	1720.	315.1	0.1213
	1721.	315.3	0.1211
	1722.	315.4	0.1211
	1723.	315.5	0.1212
	1724.	315.8	0.1212
	1725.	315.9	0.1211
	1726.	315.9	0.1212
	1727.	316.2	0.1213
	1728.	316.4	0.1211
	1729.	316.5	0.1211
	1730.	316.7	0.1213
	1731.	316.8	0.1212
	1732.	317.0	0.1212
	1733.	317.1	0.1214
	1734.	317.3	0.1215
	1735.	317.4	0.1213
	1736.	317.7	0.1213
	1737.	317.8	0.1212
	1738.	318.0	0.1212
	1739.	318.1	0.1213
	1740.	318.3	0.1215
	1741.	318.5	0.1215
	1742.	318.7	0.1215
	1743.	318.9	0.1215
	1744.	319.0	0.1214
	1745.	319.3	0.1217
	1746.	319.4	0.1217
	1747.	319.6	0.1218
	1748.	319.8	0.1219
	1749.	320.0	0.1219
	1750.	320.1	0.1221
	1751.	320.3	0.1220
	1752.	320.4	0.1221
	1753.	320.6	0.1222
	1754.	320.7	0.1221
	1755.	320.9	0.1219
	1756.	321.1	0.1218
	1757.	321.3	0.1218
	1758.	321.4	0.1218
	1759.	321.6	0.1218
	1760.	321.8	0.1219
	1761.	322.0	0.1218
	1762.	322.2	0.1221
	1763.	322.4	0.1222
	1764.	322.5	0.1226
	1765.	322.7	0.1227
	1766.	322.9	0.1224
	1767.	323.1	0.1220
	1768.	323.2	0.1218
	1769.	323.4	0.1219
	1770.	323.7	0.1219
	1771.	323.8	0.1222
	1772.	324.0	0.1221
	1773.	324.1	0.1221
	1774.	324.2	0.1220
	1775.	324.3	0.1223
	1776.	324.4	0.1225
	1777.	324.7	0.1224
	1778.	324.8	0.1223
	1779.	324.9	0.1224
	1780.	325.0	0.1222
	1781.	325.1	0.1224
	1782.	325.3	0.1223
	1783.	325.6	0.1227
	1784.	325.7	0.1229
	1785.	325.9	0.1232
	1786.	326.0	0.1235
	1787.	326.3	0.1234
	1788.	326.5	0.1236
	1789.	326.6	0.1235
	1790.	326.7	0.1234
	1791.	327.0	0.1233
	1792.	327.1	0.1230
	1793.	327.3	0.1230
	1794.	327.5	0.1227
	1795.	327.6	0.1231
	1796.	327.8	0.1233
	1797.	328.0	0.1235
	1798.	328.2	0.1241
	1799.	328.4	0.1242
	1800.	328.4	0.1242
	1801.	328.5	0.1239
	1802.	328.6	0.1240
	1803.	328.8	0.1238
	1804.	329.1	0.1237
	1805.	329.3	0.1235
	1806.	329.4	0.1229
	1807.	329.7	0.1226
	1808.	329.8	0.1228
	1809.	329.9	0.1227
	1810.	330.1	0.1230
	1811.	330.2	0.1228
	1812.	330.4	0.1227
	1813.	330.7	0.1228
	1814.	330.8	0.1228
	1815.	331.0	0.1228
	1816.	331.2	0.1226
	1817.	331.4	0.1228
	1818.	331.6	0.1228
	1819.	331.7	0.1230
	1820.	331.9	0.1228
	1821.	332.1	0.1224
	1822.	332.2	0.1220
	1823.	332.3	0.1225
	1824.	332.5	0.1227
	1825.	332.7	0.1228
	1826.	332.9	0.1228
	1827.	333.0	0.1227
	1828.	333.2	0.1225
	1829.	333.3	0.1228
	1830.	333.5	0.1227
	1831.	333.6	0.1224
	1832.	333.9	0.1227
	1833.	334.1	0.1230
	1834.	334.2	0.1231
	1835.	334.3	0.1232
	1836.	334.5	0.1233
	1837.	334.6	0.1234
	1838.	334.8	0.1234
	1839.	335.0	0.1236
	1840.	335.2	0.1236
	1841.	335.4	0.1239
	1842.	335.5	0.1238
	1843.	335.7	0.1238
	1844.	335.8	0.1237
	1845.	335.9	0.1237
	1846.	336.1	0.1235
	1847.	336.2	0.1233
	1848.	336.4	0.1230
	1849.	336.6	0.1231
	1850.	336.7	0.1230
	1851.	337.0	0.1229
	1852.	337.1	0.1231
	1853.	337.3	0.1230
	1854.	337.3	0.1232
	1855.	337.5	0.1232
	1856.	337.7	0.1230
	1857.	337.9	0.1229
	1858.	338.1	0.1226
	1859.	338.2	0.1228
	1860.	338.3	0.1225
	1861.	338.5	0.1227
	1862.	338.6	0.1228
	1863.	338.9	0.1228
	1864.	339.1	0.1224
	1865.	339.3	0.1227
	1866.	339.6	0.1232
	1867.	339.7	0.1233
	1868.	339.8	0.1235
	1869.	340.0	0.1236
	1870.	340.1	0.1238
	1871.	340.3	0.1238
	1872.	340.4	0.1239
	1873.	340.5	0.1238
	1874.	340.7	0.1238
	1875.	340.9	0.1241
	1876.	341.1	0.1238
	1877.	341.2	0.1238
	1878.	341.5	0.1238
	1879.	341.7	0.1236
	1880.	341.8	0.1233
	1881.	342.0	0.1232
	1882.	342.2	0.1231
	1883.	342.2	0.1233
	1884.	342.3	0.1233
	1885.	342.5	0.1230
	1886.	342.6	0.1228
	1887.	342.9	0.1225
	1888.	343.0	0.1223
	1889.	343.2	0.1228
	1890.	343.4	0.1231
	1891.	343.6	0.1234
	1892.	343.8	0.1237
	1893.	343.9	0.1236
	1894.	344.0	0.1235
	1895.	344.1	0.1235
	1896.	344.3	0.1232
	1897.	344.5	0.1234
	1898.	344.7	0.1233
	1899.	344.9	0.1233
	1900.	345.1	0.1229
	1901.	345.3	0.1234
	1902.	345.5	0.1232
	1903.	345.7	0.1230
	1904.	345.9	0.1228
	1905.	346.0	0.1226
	1906.	346.2	0.1232
	1907.	346.4	0.1234
	1908.	346.6	0.1234
	1909.	346.8	0.1237
	1910.	347.0	0.1236
	1911.	347.1	0.1236
	1912.	347.3	0.1234
	1913.	347.5	0.1231
	1914.	347.5	0.1229
	1915.	347.7	0.1228
	1916.	347.9	0.1224
	1917.	348.1	0.1228
	1918.	348.3	0.1231
	1919.	348.3	0.1230
	1920.	348.5	0.1229
	1921.	348.6	0.1229
	1922.	348.7	0.1232
	1923.	348.9	0.1226
	1924.	349.1	0.1224
	1925.	349.3	0.1223
	1926.	349.5	0.1224
	1927.	349.6	0.1222
	1928.	349.7	0.1222
	1929.	349.9	0.1223
	1930.	350.1	0.1223
	1931.	350.1	0.1221
	1932.	350.4	0.1222
	1933.	350.6	0.1222
	1934.	350.8	0.1221
	1935.	350.8	0.1223
	1936.	351.0	0.1223
	1937.	351.2	0.1222
	1938.	351.4	0.1221
	1939.	351.6	0.1223
	1940.	351.7	0.1227
	1941.	351.9	0.1225
	1942.	352.1	0.1226
	1943.	352.2	0.1227
	1944.	352.3	0.1231
	1945.	352.6	0.1230
	1946.	352.8	0.1232
	1947.	352.8	0.1233
	1948.	353.0	0.1235
	1949.	353.2	0.1234
	1950.	353.4	0.1233
	1951.	353.6	0.1232
	1952.	353.8	0.1231
	1953.	353.9	0.1230
	1954.	354.1	0.1231
	1955.	354.2	0.1230
	1956.	354.4	0.1233
	1957.	354.5	0.1234
	1958.	354.7	0.1235
	1959.	354.9	0.1235
	1960.	355.1	0.1233
	1961.	355.3	0.1227
	1962.	355.5	0.1222
	1963.	355.6	0.1221
	1964.	355.8	0.1224
	1965.	356.0	0.1221
	1966.	356.1	0.1220
	1967.	356.2	0.1217
	1968.	356.5	0.1216
	1969.	356.7	0.1217
	1970.	356.9	0.1214
	1971.	357.1	0.1214
	1972.	357.3	0.1211
	1973.	357.4	0.1211
	1974.	357.6	0.1211
	1975.	357.8	0.1211
	1976.	358.0	0.1211
	1977.	358.1	0.1211
	1978.	358.3	0.1213
	1979.	358.5	0.1215
	1980.	358.6	0.1218
	1981.	358.8	0.1218
	1982.	359.0	0.1216
	1983.	359.2	0.1217
	1984.	359.3	0.1216
	1985.	359.5	0.1217
	1986.	359.6	0.1215
	1987.	359.8	0.1215
	1988.	359.9	0.1215
	1989.	360.1	0.1214
	1990.	360.3	0.1215
	1991.	360.4	0.1215
	1992.	360.5	0.1214
	1993.	360.7	0.1213
	1994.	360.9	0.1212
	1995.	361.1	0.1212
	1996.	361.1	0.1212
	1997.	361.3	0.1213
	1998.	361.4	0.1214
	1999.	361.6	0.1211
	2000.	361.8	0.1211
	2001.	362.0	0.1212
	2002.	362.2	0.1214
	2003.	362.3	0.1213
	2004.	362.4	0.1214
	2005.	362.6	0.1212
	2006.	362.8	0.1214
	2007.	363.0	0.1214
	2008.	363.1	0.1213
	2009.	363.3	0.1213
	2010.	363.4	0.1213
	2011.	363.5	0.1212
	2012.	363.7	0.1213
	2013.	363.8	0.1214
	2014.	364.0	0.1212
	2015.	364.2	0.1212
	2016.	364.3	0.1212
	2017.	364.5	0.1213
	2018.	364.7	0.1214
	2019.	364.7	0.1216
	2020.	364.9	0.1221
	2021.	365.0	0.1226
	2022.	365.2	0.1233
	2023.	365.4	0.1237
	2024.	365.7	0.1235
	2025.	365.9	0.1235
	2026.	366.0	0.1237
	2027.	366.2	0.1236
	2028.	366.3	0.1235
	2029.	366.5	0.1236
	2030.	366.6	0.1235
	2031.	366.8	0.1237
	2032.	367.0	0.1239
	2033.	367.2	0.1239
	2034.	367.4	0.1238
	2035.	367.6	0.1241
	2036.	367.8	0.1246
	2037.	367.9	0.1249
	2038.	368.2	0.1253
	2039.	368.4	0.1254
	2040.	368.6	0.1255
	2041.	368.8	0.1256
	2042.	369.1	0.1259
	2043.	369.2	0.1256
	2044.	369.4	0.1258
	2045.	369.6	0.1256
	2046.	369.8	0.1257
	2047.	370.0	0.1253
	2048.	370.1	0.1251
	2049.	370.3	0.1251
	2050.	370.4	0.1247
	2051.	370.6	0.1248
	2052.	370.8	0.1251
	2053.	370.9	0.1249
	2054.	371.0	0.1248
	2055.	371.2	0.1246
	2056.	371.3	0.1247
	2057.	371.6	0.1248
	2058.	371.8	0.1250
	2059.	371.9	0.1248
	2060.	372.0	0.1246
	2061.	372.2	0.1245
	2062.	372.3	0.1245
	2063.	372.5	0.1243
	2064.	372.6	0.1243
	2065.	372.8	0.1244
	2066.	373.0	0.1244
	2067.	373.2	0.1245
	2068.	373.4	0.1244
	2069.	373.5	0.1244
	2070.	373.7	0.1244
	2071.	373.8	0.1245
	2072.	374.0	0.1247
	2073.	374.1	0.1247
	2074.	374.2	0.1247
	2075.	374.3	0.1249
	2076.	374.4	0.1248
	2077.	374.5	0.1249
	2078.	374.7	0.1251
	2079.	374.9	0.1254
	2080.	375.1	0.1254
	2081.	375.1	0.1249
	2082.	375.3	0.1249
	2083.	375.5	0.1251
	2084.	375.7	0.1250
	2085.	375.9	0.1249
	2086.	376.0	0.1251
	2087.	376.1	0.1253
	2088.	376.3	0.1256
	2089.	376.4	0.1259
	2090.	376.6	0.1259
	2091.	376.8	0.1258
	2092.	377.0	0.1256
	2093.	377.1	0.1257
	2094.	377.3	0.1257
	2095.	377.6	0.1254
	2096.	377.8	0.1251
	2097.	377.9	0.1250
	2098.	378.1	0.1253
	2099.	378.3	0.1254
	2100.	378.5	0.1257
	2101.	378.7	0.1258
	2102.	378.9	0.1258
	2103.	379.1	0.1259
	2104.	379.1	0.1260
	2105.	379.4	0.1259
	2106.	379.6	0.1260
	2107.	379.7	0.1261
	2108.	379.9	0.1260
	2109.	380.1	0.1260
	2110.	380.3	0.1261
	2111.	380.4	0.1260
	2112.	380.6	0.1260
	2113.	380.7	0.1260
	2114.	380.9	0.1259
	2115.	381.0	0.1258
	2116.	381.2	0.1255
	2117.	381.3	0.1253
	2118.	381.5	0.1251
	2119.	381.7	0.1251
	2120.	381.8	0.1253
	2121.	382.0	0.1252
	2122.	382.2	0.1253
	2123.	382.4	0.1253
	2124.	382.4	0.1252
	2125.	382.7	0.1254
	2126.	382.8	0.1255
	2127.	383.0	0.1257
	2128.	383.1	0.1260
	2129.	383.3	0.1263
	2130.	383.5	0.1263
	2131.	383.6	0.1265
	2132.	383.8	0.1266
	2133.	384.0	0.1265
	2134.	384.2	0.1263
	2135.	384.3	0.1261
	2136.	384.4	0.1262
	2137.	384.6	0.1260
	2138.	384.8	0.1260
	2139.	384.9	0.1257
	2140.	385.1	0.1257
	2141.	385.2	0.1255
	2142.	385.5	0.1254
	2143.	385.7	0.1253
	2144.	385.9	0.1251
	2145.	386.1	0.1253
	2146.	386.2	0.1252
	2147.	386.4	0.1254
	2148.	386.6	0.1253
	2149.	386.7	0.1254
	2150.	386.8	0.1251
	2151.	387.0	0.1251
	2152.	387.2	0.1250
	2153.	387.3	0.1253
	2154.	387.4	0.1254
	2155.	387.7	0.1249
	2156.	387.9	0.1248
	2157.	388.0	0.1248
	2158.	388.2	0.1250
	2159.	388.3	0.1255
	2160.	388.5	0.1258
	2161.	388.7	0.1256
	2162.	388.8	0.1257
	2163.	389.1	0.1258
	2164.	389.2	0.1259
	2165.	389.4	0.1260
	2166.	389.5	0.1258
	2167.	389.7	0.1259
	2168.	389.8	0.1260
	2169.	390.0	0.1259
	2170.	390.1	0.1259
	2171.	390.3	0.1257
	2172.	390.4	0.1258
	2173.	390.6	0.1255
	2174.	390.7	0.1255
	2175.	390.8	0.1257
	2176.	391.0	0.1254
	2177.	391.3	0.1252
	2178.	391.5	0.1253
	2179.	391.6	0.1254
	2180.	391.8	0.1255
	2181.	392.0	0.1257
	2182.	392.2	0.1257
	2183.	392.4	0.1257
	2184.	392.5	0.1259
	2185.	392.7	0.1256
	2186.	392.9	0.1257
	2187.	393.1	0.1257
	2188.	393.2	0.1259
	2189.	393.4	0.1259
	2190.	393.5	0.1259
	2191.	393.6	0.1259
	2192.	393.8	0.1257
	2193.	394.0	0.1258
	2194.	394.1	0.1258
	2195.	394.3	0.1257
	2196.	394.4	0.1257
	2197.	394.5	0.1259
	2198.	394.7	0.1260
	2199.	394.8	0.1261
	2200.	395.0	0.1260
	2201.	395.1	0.1261
	2202.	395.3	0.1263
	2203.	395.5	0.1262
	2204.	395.6	0.1263
	2205.	395.9	0.1261
	2206.	396.0	0.1260
	2207.	396.2	0.1258
	2208.	396.4	0.1259
	2209.	396.5	0.1257
	2210.	396.7	0.1258
	2211.	396.9	0.1259
	2212.	397.0	0.1258
	2213.	397.1	0.1260
	2214.	397.4	0.1260
	2215.	397.6	0.1262
	2216.	397.8	0.1264
	2217.	398.0	0.1264
	2218.	398.0	0.1263
	2219.	398.3	0.1262
	2220.	398.5	0.1263
	2221.	398.6	0.1262
	2222.	398.7	0.1262
	2223.	398.9	0.1261
	2224.	399.0	0.1262
	2225.	399.2	0.1261
	2226.	399.4	0.1260
	2227.	399.6	0.1262
	2228.	399.8	0.1260
	2229.	399.9	0.1259
	2230.	400.0	0.1258
	2231.	400.2	0.1257
	2232.	400.4	0.1258
	2233.	400.6	0.1261
	2234.	400.8	0.1259
	2235.	400.9	0.1258
	2236.	401.1	0.1263
	2237.	401.3	0.1264
	2238.	401.4	0.1265
	2239.	401.5	0.1267
	2240.	401.7	0.1266
	2241.	401.9	0.1268
	2242.	402.0	0.1266
	2243.	402.2	0.1266
	2244.	402.3	0.1267
	2245.	402.6	0.1267
	2246.	402.7	0.1269
	2247.	402.9	0.1268
	2248.	403.1	0.1270
	2249.	403.3	0.1267
	2250.	403.5	0.1265
	2251.	403.5	0.1263
	2252.	403.7	0.1261
	2253.	403.8	0.1265
	2254.	404.0	0.1266
	2255.	404.2	0.1266
	2256.	404.4	0.1266
	2257.	404.5	0.1270
	2258.	404.6	0.1266
	2259.	404.8	0.1264
	2260.	405.0	0.1268
	2261.	405.1	0.1267
	2262.	405.3	0.1266
	2263.	405.5	0.1267
	2264.	405.7	0.1269
	2265.	406.0	0.1273
	2266.	406.1	0.1273
	2267.	406.2	0.1270
	2268.	406.5	0.1271
	2269.	406.6	0.1271
	2270.	406.8	0.1270
	2271.	407.0	0.1269
	2272.	407.2	0.1274
	2273.	407.2	0.1280
	2274.	407.4	0.1281
	2275.	407.5	0.1274
	2276.	407.7	0.1276
	2277.	407.9	0.1273
	2278.	408.0	0.1271
	2279.	408.2	0.1271
	2280.	408.3	0.1268
	2281.	408.4	0.1267
	2282.	408.6	0.1264
	2283.	408.8	0.1265
	2284.	409.0	0.1264
	2285.	409.1	0.1260
	2286.	409.3	0.1261
	2287.	409.5	0.1262
	2288.	409.6	0.1262
	2289.	409.7	0.1262
	2290.	410.0	0.1261
	2291.	410.1	0.1261
	2292.	410.3	0.1258
	2293.	410.5	0.1259
	2294.	410.7	0.1262
	2295.	410.8	0.1262
	2296.	410.9	0.1261
	2297.	411.2	0.1261
	2298.	411.4	0.1261
	2299.	411.5	0.1261
	2300.	411.7	0.1262
	2301.	411.8	0.1263
	2302.	412.0	0.1263
	2303.	412.3	0.1263
	2304.	412.4	0.1262
	2305.	412.5	0.1264
	2306.	412.8	0.1264
	2307.	412.9	0.1264
	2308.	413.0	0.1263
	2309.	413.3	0.1262
	2310.	413.4	0.1262
	2311.	413.6	0.1262
	2312.	413.8	0.1262
	2313.	414.0	0.1260
	2314.	414.3	0.1262
	2315.	414.4	0.1262
	2316.	414.5	0.1263
	2317.	414.7	0.1263
	2318.	414.8	0.1264
	2319.	415.0	0.1264
	2320.	415.2	0.1264
	2321.	415.3	0.1263
	2322.	415.5	0.1263
	2323.	415.6	0.1264
	2324.	415.8	0.1263
	2325.	416.0	0.1262
	2326.	416.1	0.1262
	2327.	416.3	0.1262
	2328.	416.4	0.1264
	2329.	416.6	0.1265
	2330.	416.8	0.1268
	2331.	417.0	0.1268
	2332.	417.2	0.1271
	2333.	417.3	0.1274
	2334.	417.6	0.1276
	2335.	417.7	0.1277
	2336.	417.9	0.1281
	2337.	418.0	0.1282
	2338.	418.2	0.1281
	2339.	418.3	0.1278
	2340.	418.5	0.1273
	2341.	418.5	0.1269
	2342.	418.7	0.1268
	2343.	418.8	0.1268
	2344.	418.9	0.1269
	2345.	419.1	0.1268
	2346.	419.3	0.1268
	2347.	419.4	0.1272
	2348.	419.7	0.1273
	2349.	419.9	0.1272
	2350.	420.0	0.1269
	2351.	420.1	0.1266
	2352.	420.2	0.1264
	2353.	420.4	0.1264
	2354.	420.6	0.1266
	2355.	420.8	0.1265
	2356.	421.0	0.1265
	2357.	421.1	0.1264
	2358.	421.3	0.1269
	2359.	421.5	0.1266
	2360.	421.6	0.1267
	2361.	421.8	0.1264
	2362.	421.9	0.1264
	2363.	422.0	0.1264
	2364.	422.2	0.1264
	2365.	422.5	0.1264
	2366.	422.7	0.1266
	2367.	422.9	0.1265
	2368.	423.1	0.1266
	2369.	423.3	0.1265
	2370.	423.4	0.1264
	2371.	423.5	0.1268
	2372.	423.7	0.1269
	2373.	424.0	0.1274
	2374.	424.2	0.1277
	2375.	424.4	0.1275
	2376.	424.6	0.1274
	2377.	424.8	0.1273
	2378.	424.9	0.1275
	2379.	425.1	0.1277
	2380.	425.2	0.1274
	2381.	425.4	0.1272
	2382.	425.5	0.1275
	2383.	425.7	0.1270
	2384.	425.9	0.1273
	2385.	426.0	0.1272
	2386.	426.1	0.1272
	2387.	426.2	0.1275
	2388.	426.4	0.1277
	2389.	426.5	0.1277
	2390.	426.7	0.1280
	2391.	426.9	0.1280
	2392.	427.1	0.1280
	2393.	427.3	0.1277
	2394.	427.4	0.1273
	2395.	427.6	0.1275
	2396.	427.7	0.1282
	2397.	427.9	0.1282
	2398.	428.0	0.1285
	2399.	428.2	0.1287
	2400.	428.3	0.1287
	2401.	428.4	0.1288
	2402.	428.6	0.1286
	2403.	428.9	0.1288
	2404.	429.0	0.1293
	2405.	429.2	0.1292
	2406.	429.4	0.1293
	2407.	429.6	0.1290
	2408.	429.8	0.1286
	2409.	430.0	0.1285
	2410.	430.1	0.1282
	2411.	430.3	0.1282
	2412.	430.4	0.1284
	2413.	430.6	0.1284
	2414.	430.7	0.1285
	2415.	430.8	0.1286
	2416.	431.0	0.1283
	2417.	431.1	0.1283
	2418.	431.3	0.1283
	2419.	431.4	0.1282
	2420.	431.5	0.1283
	2421.	431.6	0.1282
	2422.	431.9	0.1282
	2423.	432.1	0.1276
	2424.	432.3	0.1276
	2425.	432.4	0.1277
	2426.	432.5	0.1278
	2427.	432.7	0.1276
	2428.	432.9	0.1275
	2429.	433.1	0.1279
	2430.	433.3	0.1282
	2431.	433.5	0.1283
	2432.	433.7	0.1284
	2433.	433.8	0.1287
	2434.	434.0	0.1287
	2435.	434.1	0.1290
	2436.	434.3	0.1291
	2437.	434.5	0.1293
	2438.	434.6	0.1294
	2439.	434.7	0.1295
	2440.	435.0	0.1294
	2441.	435.2	0.1290
	2442.	435.3	0.1292
	2443.	435.5	0.1293
	2444.	435.6	0.1295
	2445.	435.8	0.1295
	2446.	436.0	0.1297
	2447.	436.2	0.1298
	2448.	436.4	0.1302
	2449.	436.4	0.1300
	2450.	436.7	0.1300
	2451.	436.9	0.1302
	2452.	437.1	0.1308
	2453.	437.3	0.1324
	2454.	437.4	0.1345
	2455.	437.6	0.1359
	2456.	437.8	0.1371
	2457.	438.0	0.1381
	2458.	438.2	0.1387
	2459.	438.4	0.1393
	2460.	438.5	0.1395
	2461.	438.7	0.1401
	2462.	438.7	0.1402
	2463.	438.9	0.1404
	2464.	439.1	0.1406
	2465.	439.3	0.1407
	2466.	439.5	0.1406
	2467.	439.7	0.1404
	2468.	439.8	0.1405
	2469.	440.0	0.1404
	2470.	440.1	0.1404
	2471.	440.3	0.1404
	2472.	440.3	0.1403
	2473.	440.5	0.1402
	2474.	440.7	0.1398
	2475.	440.9	0.1399
	2476.	441.0	0.1398
	2477.	441.2	0.1396
	2478.	441.3	0.1396
	2479.	441.6	0.1396
	2480.	441.6	0.1395
	2481.	441.8	0.1397
	2482.	441.9	0.1398
	2483.	442.0	0.1397
	2484.	442.2	0.1397
	2485.	442.4	0.1395
	2486.	442.6	0.1396
	2487.	442.7	0.1397
	2488.	443.0	0.1397
	2489.	443.1	0.1396
	2490.	443.2	0.1395
	2491.	443.5	0.1393
	2492.	443.7	0.1391
	2493.	443.9	0.1391
	2494.	444.0	0.1391
	2495.	444.2	0.1392
	2496.	444.3	0.1390
	2497.	444.5	0.1391
	2498.	444.6	0.1392
	2499.	444.8	0.1389
	2500.	445.0	0.1389
	2501.	445.1	0.1390
	2502.	445.3	0.1390
	2503.	445.4	0.1389
	2504.	445.5	0.1391
	2505.	445.8	0.1393
	2506.	446.0	0.1394
	2507.	446.1	0.1396
	2508.	446.3	0.1401
	2509.	446.5	0.1401
	2510.	446.5	0.1404
	2511.	446.8	0.1405
	2512.	447.0	0.1403
	2513.	447.2	0.1400
	2514.	447.3	0.1398
	2515.	447.4	0.1396
	2516.	447.6	0.1392
	2517.	447.9	0.1391
	2518.	448.0	0.1391
	2519.	448.2	0.1395
	2520.	448.4	0.1396
	2521.	448.5	0.1395
	2522.	448.6	0.1394
	2523.	448.8	0.1397
	2524.	448.9	0.1396
	2525.	449.0	0.1395
	2526.	449.3	0.1396
	2527.	449.5	0.1395
	2528.	449.7	0.1395
	2529.	449.9	0.1392
	2530.	450.0	0.1392
	2531.	450.2	0.1391
	2532.	450.4	0.1392
	2533.	450.4	0.1392
	2534.	450.6	0.1393
	2535.	450.8	0.1395
	2536.	451.0	0.1394
	2537.	451.2	0.1396
	2538.	451.3	0.1395
	2539.	451.5	0.1394
	2540.	451.7	0.1396
	2541.	451.9	0.1394
	2542.	452.1	0.1393
	2543.	452.3	0.1392
	2544.	452.4	0.1391
	2545.	452.5	0.1390
	2546.	452.7	0.1389
	2547.	452.8	0.1390
	2548.	453.0	0.1391
	2549.	453.2	0.1390
	2550.	453.3	0.1392
	2551.	453.5	0.1396
	2552.	453.7	0.1399
	2553.	453.9	0.1402
	2554.	454.1	0.1403
	2555.	454.2	0.1405
	2556.	454.3	0.1405
	2557.	454.5	0.1403
	2558.	454.7	0.1401
	2559.	454.8	0.1403
	2560.	455.1	0.1404
	2561.	455.1	0.1406
	2562.	455.3	0.1406
	2563.	455.4	0.1405
	2564.	455.6	0.1402
	2565.	455.8	0.1401
	2566.	455.9	0.1398
	2567.	456.1	0.1396
	2568.	456.3	0.1395
	2569.	456.4	0.1394
	2570.	456.6	0.1392
	2571.	456.8	0.1393
	2572.	456.9	0.1392
	2573.	457.1	0.1392
	2574.	457.3	0.1391
	2575.	457.4	0.1389
	2576.	457.6	0.1389
	2577.	457.7	0.1390
	2578.	458.0	0.1390
	2579.	458.1	0.1389
	2580.	458.3	0.1389
	2581.	458.5	0.1391
	2582.	458.6	0.1389
	2583.	458.9	0.1388
	2584.	459.1	0.1390
	2585.	459.3	0.1392
	2586.	459.4	0.1396
	2587.	459.6	0.1396
	2588.	459.8	0.1397
	2589.	459.9	0.1398
	2590.	460.2	0.1398
	2591.	460.3	0.1399
	2592.	460.5	0.1401
	2593.	460.6	0.1401
	2594.	460.8	0.1399
	2595.	460.9	0.1400
	2596.	461.0	0.1401
	2597.	461.2	0.1401
	2598.	461.5	0.1405
	2599.	461.5	0.1407
	2600.	461.7	0.1407
	2601.	461.8	0.1406
	2602.	461.9	0.1406
	2603.	462.1	0.1406
	2604.	462.3	0.1407
	2605.	462.5	0.1405
	2606.	462.6	0.1407
	2607.	462.7	0.1408
	2608.	462.9	0.1411
	2609.	463.1	0.1412
	2610.	463.3	0.1417
	2611.	463.5	0.1416
	2612.	463.7	0.1417
	2613.	463.8	0.1417
	2614.	464.0	0.1413
	2615.	464.1	0.1411
	2616.	464.2	0.1409
	2617.	464.3	0.1410
	2618.	464.5	0.1409
	2619.	464.7	0.1407
	2620.	464.9	0.1405
	2621.	465.1	0.1408
	2622.	465.3	0.1449
	2623.	465.4	0.1481
	2624.	465.7	0.1506
	2625.	465.8	0.1523
	2626.	465.9	0.1534
	2627.	466.1	0.1542
	2628.	466.2	0.1553
	2629.	466.5	0.1559
	2630.	466.7	0.1564
	2631.	466.8	0.1567
	2632.	467.0	0.1571
	2633.	467.2	0.1571
	2634.	467.4	0.1571
	2635.	467.5	0.1570
	2636.	467.6	0.1567
	2637.	467.7	0.1570
	2638.	467.9	0.1569
	2639.	468.1	0.1569
	2640.	468.2	0.1571
	2641.	468.4	0.1568
	2642.	468.6	0.1562
	2643.	468.7	0.1557
	2644.	468.9	0.1558
	2645.	469.2	0.1560
	2646.	469.4	0.1559
	2647.	469.6	0.1559
	2648.	469.7	0.1554
	2649.	469.8	0.1553
	2650.	470.0	0.1554
	2651.	470.1	0.1556
	2652.	470.2	0.1555
	2653.	470.4	0.1556
	2654.	470.7	0.1553
	2655.	470.8	0.1553
	2656.	471.0	0.1553
	2657.	471.2	0.1552
	2658.	471.4	0.1552
	2659.	471.6	0.1554
	2660.	471.6	0.1556
	2661.	471.8	0.1556
	2662.	471.9	0.1549
	2663.	472.2	0.1545
	2664.	472.4	0.1544
	2665.	472.6	0.1544
	2666.	472.8	0.1543
	2667.	472.9	0.1543
	2668.	473.1	0.1545
	2669.	473.2	0.1545
	2670.	473.3	0.1544
	2671.	473.5	0.1542
	2672.	473.7	0.1541
	2673.	473.8	0.1536
	2674.	473.9	0.1538
	2675.	474.0	0.1538
	2676.	474.2	0.1537
	2677.	474.3	0.1535
	2678.	474.5	0.1539
	2679.	474.6	0.1537
	2680.	474.8	0.1532
	2681.	475.0	0.1531
	2682.	475.2	0.1529
	2683.	475.3	0.1531
	2684.	475.4	0.1533
	2685.	475.6	0.1532
	2686.	475.8	0.1532
	2687.	476.0	0.1533
	2688.	476.1	0.1530
	2689.	476.4	0.1529
	2690.	476.6	0.1525
	2691.	476.7	0.1528
	2692.	476.8	0.1529
	2693.	477.0	0.1529
	2694.	477.2	0.1528
	2695.	477.5	0.1529
	2696.	477.5	0.1528
	2697.	477.7	0.1525
	2698.	477.8	0.1529
	2699.	478.0	0.1531
	2700.	478.2	0.1534
	2701.	478.4	0.1535
	2702.	478.5	0.1536
	2703.	478.7	0.1536
	2704.	478.8	0.1535
	2705.	479.1	0.1534
	2706.	479.3	0.1535
	2707.	479.5	0.1534
	2708.	479.7	0.1533
	2709.	479.9	0.1536
	2710.	480.2	0.1535
	2711.	480.4	0.1537
	2712.	480.6	0.1537
	2713.	480.8	0.1537
	2714.	480.9	0.1535
	2715.	481.1	0.1536
	2716.	481.3	0.1534
	2717.	481.4	0.1534
	2718.	481.6	0.1536
	2719.	481.7	0.1537
	2720.	481.9	0.1538
	2721.	482.0	0.1540
	2722.	482.2	0.1541
	2723.	482.3	0.1543
	2724.	482.4	0.1538
	2725.	482.6	0.1541
	2726.	482.7	0.1544
	2727.	482.8	0.1542
	2728.	483.0	0.1544
	2729.	483.1	0.1540
	2730.	483.3	0.1538
	2731.	483.4	0.1537
	2732.	483.5	0.1535
	2733.	483.7	0.1553
	2734.	483.8	0.1598
	2735.	484.0	0.1635
	2736.	484.1	0.1665
	2737.	484.3	0.1689
	2738.	484.5	0.1699
	2739.	484.7	0.1708
	2740.	484.9	0.1716
	2741.	485.0	0.1719
	2742.	485.2	0.1724
	2743.	485.4	0.1728
	2744.	485.5	0.1732
	2745.	485.7	0.1732
	2746.	485.9	0.1731
	2747.	486.1	0.1730
	2748.	486.2	0.1725
	2749.	486.4	0.1726
	2750.	486.6	0.1726
	2751.	486.7	0.1731
	2752.	486.9	0.1735
	2753.	487.1	0.1736
	2754.	487.3	0.1735
	2755.	487.5	0.1734
	2756.	487.7	0.1730
	2757.	487.9	0.1727
	2758.	488.1	0.1727
	2759.	488.2	0.1724
	2760.	488.3	0.1725
	2761.	488.5	0.1722
	2762.	488.7	0.1721
	2763.	489.0	0.1717
	2764.	489.1	0.1716
	2765.	489.3	0.1718
	2766.	489.4	0.1710
	2767.	489.6	0.1710
	2768.	489.7	0.1708
	2769.	489.9	0.1707
	2770.	490.1	0.1703
	2771.	490.2	0.1708
	2772.	490.3	0.1704
	2773.	490.5	0.1704
	2774.	490.8	0.1709
	2775.	490.9	0.1711
	2776.	491.1	0.1712
	2777.	491.3	0.1716
	2778.	491.4	0.1712
	2779.	491.6	0.1711
	2780.	491.8	0.1708
	2781.	491.9	0.1709
	2782.	492.1	0.1705
	2783.	492.1	0.1701
	2784.	492.3	0.1703
	2785.	492.4	0.1702
	2786.	492.6	0.1702
	2787.	492.8	0.1703
	2788.	493.0	0.1703
	2789.	493.2	0.1705
	2790.	493.2	0.1701
	2791.	493.3	0.1698
	2792.	493.4	0.1700
	2793.	493.6	0.1698
	2794.	493.8	0.1700
	2795.	494.0	0.1698
	2796.	494.2	0.1697
	2797.	494.5	0.1696
	2798.	494.6	0.1694
	2799.	494.8	0.1691
	2800.	494.8	0.1694
	2801.	494.9	0.1695
	2802.	495.1	0.1695
	2803.	495.3	0.1695
	2804.	495.4	0.1696
	2805.	495.6	0.1695
	2806.	495.9	0.1697
	2807.	496.2	0.1696
	2808.	496.4	0.1696
	2809.	496.6	0.1699
	2810.	496.7	0.1698
	2811.	497.0	0.1701
	2812.	497.1	0.1700
	2813.	497.4	0.1703
	2814.	497.5	0.1702
	2815.	497.7	0.1698
	2816.	497.9	0.1698
	2817.	498.0	0.1697
	2818.	498.2	0.1696
	2819.	498.3	0.1696
	2820.	498.5	0.1697
	2821.	498.6	0.1696
	2822.	498.8	0.1697
	2823.	498.9	0.1696
	2824.	499.1	0.1697
	2825.	499.2	0.1697
	2826.	499.5	0.1696
	2827.	499.7	0.1697
	2828.	499.8	0.1695
	2829.	499.9	0.1696
	2830.	500.1	0.1694
	2831.	500.3	0.1696
	2832.	500.4	0.1694
	2833.	500.6	0.1694
	2834.	500.8	0.1696
	2835.	500.9	0.1697
	2836.	501.0	0.1695
	2837.	501.1	0.1696
	2838.	501.3	0.1694
	2839.	501.5	0.1696
	2840.	501.6	0.1696
	2841.	501.7	0.1696
	2842.	501.9	0.1696
	2843.	502.1	0.1697
	2844.	502.2	0.1698
	2845.	502.4	0.1699
	2846.	502.6	0.1698
	2847.	502.7	0.1696
	2848.	502.8	0.1696
	2849.	502.9	0.1698
	2850.	503.1	0.1700
	2851.	503.3	0.1697
	2852.	503.5	0.1696
	2853.	503.7	0.1693
	2854.	503.9	0.1696
	2855.	504.0	0.1697
	2856.	504.2	0.1696
	2857.	504.4	0.1695
	2858.	504.6	0.1695
	2859.	504.8	0.1695
	2860.	505.0	0.1696
	2861.	505.2	0.1698
	2862.	505.4	0.1699
	2863.	505.5	0.1699
	2864.	505.6	0.1701
	2865.	505.8	0.1700
	2866.	506.0	0.1700
	2867.	506.1	0.1704
	2868.	506.4	0.1701
	2869.	506.6	0.1698
	2870.	506.7	0.1696
	2871.	506.9	0.1695
	2872.	507.1	0.1696
	2873.	507.2	0.1698
	2874.	507.3	0.1697
	2875.	507.5	0.1698
	2876.	507.7	0.1697
	2877.	507.9	0.1698
	2878.	508.1	0.1699
	2879.	508.3	0.1696
	2880.	508.5	0.1695
	2881.	508.6	0.1693
	2882.	508.8	0.1694
	2883.	508.9	0.1694
	2884.	509.1	0.1691
	2885.	509.3	0.1693
	2886.	509.5	0.1689
	2887.	509.7	0.1691
	2888.	509.8	0.1689
	2889.	509.9	0.1690
	2890.	510.1	0.1691
	2891.	510.3	0.1690
	2892.	510.5	0.1690
	2893.	510.6	0.1690
	2894.	510.8	0.1689
	2895.	510.9	0.1688
	2896.	511.1	0.1690
	2897.	511.2	0.1688
	2898.	511.3	0.1692
	2899.	511.5	0.1694
	2900.	511.5	0.1694
	2901.	511.7	0.1695
	2902.	511.8	0.1695
	2903.	512.0	0.1695
	2904.	512.2	0.1695
	2905.	512.4	0.1696
	2906.	512.5	0.1696
	2907.	512.6	0.1696
	2908.	512.9	0.1695
	2909.	513.1	0.1695
	2910.	513.1	0.1694
	2911.	513.4	0.1695
	2912.	513.6	0.1696
	2913.	513.7	0.1699
	2914.	514.0	0.1698
	2915.	514.0	0.1700
	2916.	514.3	0.1699
	2917.	514.4	0.1700
	2918.	514.6	0.1699
	2919.	514.8	0.1698
	2920.	515.0	0.1700
	2921.	515.1	0.1699
	2922.	515.2	0.1699
	2923.	515.4	0.1700
	2924.	515.6	0.1700
	2925.	515.8	0.1698
	2926.	515.9	0.1704
	2927.	516.1	0.1706
	2928.	516.3	0.1706
	2929.	516.5	0.1705
	2930.	516.6	0.1706
	2931.	516.8	0.1704
	2932.	517.0	0.1706
	2933.	517.1	0.1703
	2934.	517.3	0.1706
	2935.	517.4	0.1702
	2936.	517.5	0.1703
	2937.	517.7	0.1703
	2938.	517.9	0.1706
	2939.	518.1	0.1707
	2940.	518.2	0.1710
	2941.	518.4	0.1712
	2942.	518.6	0.1716
	2943.	518.7	0.1714
	2944.	518.9	0.1715
	2945.	519.1	0.1715
	2946.	519.3	0.1710
	2947.	519.4	0.1710
	2948.	519.5	0.1709
	2949.	519.6	0.1709
	2950.	519.8	0.1708
	2951.	520.0	0.1706
	2952.	520.1	0.1708
	2953.	520.4	0.1706
	2954.	520.5	0.1705
	2955.	520.7	0.1707
	2956.	521.0	0.1707
	2957.	521.2	0.1706
	2958.	521.3	0.1707
	2959.	521.6	0.1709
	2960.	521.8	0.1708
	2961.	521.9	0.1707
	2962.	522.1	0.1706
	2963.	522.2	0.1704
	2964.	522.3	0.1703
	2965.	522.5	0.1702
	2966.	522.8	0.1701
	2967.	522.8	0.1703
	2968.	523.0	0.1699
	2969.	523.2	0.1698
	2970.	523.4	0.1698
	2971.	523.5	0.1698
	2972.	523.7	0.1700
	2973.	523.9	0.1700
	2974.	524.0	0.1702
	2975.	524.1	0.1704
	2976.	524.3	0.1703
	2977.	524.5	0.1705
	2978.	524.7	0.1706
	2979.	524.9	0.1707
	2980.	525.0	0.1707
	2981.	525.2	0.1708
	2982.	525.4	0.1707
	2983.	525.5	0.1708
	2984.	525.7	0.1708
	2985.	525.8	0.1709
	2986.	526.0	0.1710
	2987.	526.2	0.1711
	2988.	526.3	0.1707
	2989.	526.4	0.1709
	2990.	526.5	0.1708
	2991.	526.7	0.1710
	2992.	527.0	0.1712
	2993.	527.2	0.1711
	2994.	527.3	0.1710
	2995.	527.4	0.1712
	2996.	527.6	0.1712
	2997.	527.7	0.1713
	2998.	527.9	0.1714
	2999.	528.1	0.1718
	3000.	528.3	0.1718
	3001.	528.4	0.1719
	3002.	528.6	0.1720
	3003.	528.8	0.1719
	3004.	529.0	0.1717
	3005.	529.2	0.1718
	3006.	529.3	0.1719
	3007.	529.5	0.1719
	3008.	529.8	0.1719
	3009.	529.9	0.1714
	3010.	530.0	0.1716
	3011.	530.3	0.1712
	3012.	530.4	0.1712
	3013.	530.6	0.1710
	3014.	530.7	0.1710
	3015.	530.9	0.1711
	3016.	531.1	0.1711
	3017.	531.2	0.1712
	3018.	531.4	0.1711
	3019.	531.6	0.1712
	3020.	531.7	0.1715
	3021.	531.7	0.1713
	3022.	531.9	0.1713
	3023.	532.1	0.1714
	3024.	532.2	0.1717
	3025.	532.5	0.1725
	3026.	532.7	0.1725
	3027.	532.9	0.1725
	3028.	533.0	0.1724
	3029.	533.3	0.1723
	3030.	533.4	0.1724
	3031.	533.5	0.1726
	3032.	533.7	0.1724
	3033.	533.8	0.1727
	3034.	534.0	0.1727
	3035.	534.1	0.1725
	3036.	534.2	0.1724
	3037.	534.5	0.1726
	3038.	534.6	0.1725
	3039.	534.8	0.1727
	3040.	535.0	0.1725
	3041.	535.2	0.1722
	3042.	535.4	0.1719
	3043.	535.5	0.1718
	3044.	535.7	0.1718
	3045.	535.9	0.1718
	3046.	536.0	0.1719
	3047.	536.2	0.1720
	3048.	536.4	0.1722
	3049.	536.4	0.1722
	3050.	536.6	0.1724
	3051.	536.9	0.1725
	3052.	537.0	0.1727
	3053.	537.2	0.1728
	3054.	537.4	0.1727
	3055.	537.6	0.1726
	3056.	537.9	0.1724
	3057.	538.0	0.1723
	3058.	538.1	0.1724
	3059.	538.2	0.1722
	3060.	538.4	0.1720
	3061.	538.6	0.1720
	3062.	538.7	0.1718
	3063.	538.8	0.1718
	3064.	539.0	0.1718
	3065.	539.1	0.1718
	3066.	539.3	0.1716
	3067.	539.4	0.1717
	3068.	539.6	0.1717
	3069.	539.7	0.1716
	3070.	539.9	0.1715
	3071.	540.1	0.1718
	3072.	540.3	0.1717
	3073.	540.5	0.1717
	3074.	540.6	0.1720
	3075.	540.8	0.1720
	3076.	541.0	0.1722
	3077.	541.2	0.1725
	3078.	541.3	0.1724
	3079.	541.5	0.1724
	3080.	541.8	0.1727
	3081.	541.9	0.1730
	3082.	542.0	0.1735
	3083.	542.2	0.1738
	3084.	542.3	0.1739
	3085.	542.5	0.1739
	3086.	542.7	0.1736
	3087.	542.9	0.1735
	3088.	543.0	0.1734
	3089.	543.2	0.1734
	3090.	543.4	0.1736
	3091.	543.6	0.1737
	3092.	543.7	0.1737
	3093.	543.9	0.1734
	3094.	544.1	0.1730
	3095.	544.2	0.1729
	3096.	544.4	0.1730
	3097.	544.5	0.1731
	3098.	544.7	0.1733
	3099.	544.9	0.1732
	3100.	545.0	0.1731
	3101.	545.2	0.1727
	3102.	545.3	0.1726
	3103.	545.5	0.1728
	3104.	545.6	0.1725
	3105.	545.8	0.1723
	3106.	546.0	0.1721
	3107.	546.0	0.1724
	3108.	546.3	0.1725
	3109.	546.4	0.1725
	3110.	546.6	0.1728
	3111.	546.8	0.1728
	3112.	546.9	0.1732
	3113.	547.1	0.1732
	3114.	547.4	0.1731
	3115.	547.5	0.1730
	3116.	547.7	0.1728
	3117.	547.9	0.1729
	3118.	548.1	0.1727
	3119.	548.3	0.1726
	3120.	548.5	0.1727
	3121.	548.6	0.1729
	3122.	548.8	0.1729
	3123.	548.9	0.1727
	3124.	549.0	0.1727
	3125.	549.2	0.1726
	3126.	549.3	0.1725
	3127.	549.5	0.1725
	3128.	549.7	0.1724
	3129.	549.9	0.1724
	3130.	550.1	0.1725
	3131.	550.2	0.1726
	3132.	550.4	0.1725
	3133.	550.5	0.1725
	3134.	550.6	0.1723
	3135.	550.8	0.1722
	3136.	551.1	0.1725
	3137.	551.1	0.1727
	3138.	551.3	0.1725
	3139.	551.4	0.1726
	3140.	551.6	0.1730
	3141.	551.8	0.1729
	3142.	552.0	0.1726
	3143.	552.2	0.1729
	3144.	552.3	0.1728
	3145.	552.4	0.1730
	3146.	552.6	0.1727
	3147.	552.8	0.1727
	3148.	552.9	0.1727
	3149.	553.1	0.1728
	3150.	553.3	0.1729
	3151.	553.3	0.1730
	3152.	553.5	0.1730
	3153.	553.6	0.1730
	3154.	553.9	0.1731
	3155.	554.0	0.1730
	3156.	554.2	0.1728
	3157.	554.3	0.1730
	3158.	554.5	0.1730
	3159.	554.7	0.1733
	3160.	554.9	0.1733
	3161.	555.1	0.1735
	3162.	555.1	0.1738
	3163.	555.3	0.1736
	3164.	555.5	0.1737
	3165.	555.7	0.1735
	3166.	555.9	0.1735
	3167.	556.0	0.1735
	3168.	556.3	0.1733
	3169.	556.4	0.1734
	3170.	556.6	0.1734
	3171.	556.8	0.1734
	3172.	556.9	0.1736
	3173.	557.1	0.1736
	3174.	557.3	0.1735
	3175.	557.5	0.1733
	3176.	557.7	0.1733
	3177.	557.9	0.1733
	3178.	558.0	0.1733
	3179.	558.2	0.1734
	3180.	558.4	0.1733
	3181.	558.5	0.1736
	3182.	558.7	0.1737
	3183.	558.9	0.1736
	3184.	559.1	0.1738
	3185.	559.3	0.1734
	3186.	559.4	0.1737
	3187.	559.6	0.1738
	3188.	559.7	0.1737
	3189.	559.8	0.1736
	3190.	560.0	0.1738
	3191.	560.1	0.1734
	3192.	560.3	0.1737
	3193.	560.4	0.1735
	3194.	560.6	0.1736
	3195.	560.9	0.1733
	3196.	560.9	0.1730
	3197.	561.0	0.1731
	3198.	561.2	0.1728
	3199.	561.4	0.1730
	3200.	561.6	0.1729
	3201.	561.9	0.1727
	3202.	562.0	0.1729
	3203.	562.1	0.1729
	3204.	562.3	0.1731
	3205.	562.5	0.1732
	3206.	562.7	0.1732
	3207.	562.8	0.1731
	3208.	563.1	0.1731
	3209.	563.2	0.1734
	3210.	563.4	0.1732
	3211.	563.6	0.1731
	3212.	563.7	0.1731
	3213.	563.8	0.1732
	3214.	564.0	0.1730
	3215.	564.2	0.1733
	3216.	564.3	0.1733
	3217.	564.5	0.1735
	3218.	564.6	0.1733
	3219.	564.8	0.1734
	3220.	564.8	0.1736
	3221.	564.9	0.1736
	3222.	565.1	0.1737
	3223.	565.3	0.1737
	3224.	565.5	0.1737
	3225.	565.7	0.1739
	3226.	565.8	0.1738
	3227.	566.0	0.1740
	3228.	566.2	0.1737
	3229.	566.4	0.1738
	3230.	566.6	0.1739
	3231.	566.7	0.1740
	3232.	567.0	0.1741
	3233.	567.2	0.1740
	3234.	567.3	0.1741
	3235.	567.6	0.1739
	3236.	567.8	0.1739
	3237.	567.9	0.1739
	3238.	568.1	0.1741
	3239.	568.2	0.1741
	3240.	568.4	0.1739
	3241.	568.6	0.1738
	3242.	568.7	0.1738
	3243.	568.8	0.1738
	3244.	568.9	0.1737
	3245.	569.1	0.1736
	3246.	569.3	0.1738
	3247.	569.5	0.1737
	3248.	569.6	0.1737
	3249.	569.8	0.1739
	3250.	570.1	0.1741
	3251.	570.2	0.1741
	3252.	570.5	0.1741
	3253.	570.6	0.1739
	3254.	570.7	0.1739
	3255.	570.9	0.1739
	3256.	571.0	0.1738
	3257.	571.2	0.1739
	3258.	571.3	0.1741
	3259.	571.6	0.1739
	3260.	571.7	0.1738
	3261.	571.9	0.1741
	3262.	572.1	0.1742
	3263.	572.3	0.1744
	3264.	572.4	0.1743
	3265.	572.5	0.1744
	3266.	572.7	0.1744
	3267.	572.9	0.1742
	3268.	573.0	0.1742
	3269.	573.2	0.1741
	3270.	573.4	0.1740
	3271.	573.6	0.1739
	3272.	573.7	0.1738
	3273.	573.8	0.1738
	3274.	573.9	0.1738
	3275.	574.1	0.1738
	3276.	574.2	0.1739
	3277.	574.4	0.1743
	3278.	574.6	0.1745
	3279.	574.8	0.1744
	3280.	575.0	0.1746
	3281.	575.2	0.1748
	3282.	575.3	0.1744
	3283.	575.5	0.1744
	3284.	575.6	0.1746
	3285.	575.9	0.1746
	3286.	576.0	0.1748
	3287.	576.1	0.1752
	3288.	576.3	0.1753
	3289.	576.4	0.1753
	3290.	576.6	0.1753
	3291.	576.8	0.1752
	3292.	577.0	0.1752
	3293.	577.2	0.1755
	3294.	577.4	0.1753
	3295.	577.5	0.1750
	3296.	577.7	0.1750
	3297.	577.9	0.1752
	3298.	578.2	0.1755
	3299.	578.4	0.1756
	3300.	578.5	0.1756
	3301.	578.7	0.1755
	3302.	579.0	0.1756
	3303.	579.2	0.1756
	3304.	579.3	0.1755
	3305.	579.4	0.1758
	3306.	579.7	0.1756
	3307.	579.7	0.1759
	3308.	579.9	0.1759
	3309.	580.0	0.1760
	3310.	580.2	0.1760
	3311.	580.3	0.1760
	3312.	580.5	0.1758
	3313.	580.6	0.1758
	3314.	580.8	0.1760
	3315.	580.9	0.1761
	3316.	581.1	0.1759
	3317.	581.3	0.1756
	3318.	581.5	0.1754
	3319.	581.7	0.1751
	3320.	581.9	0.1755
	3321.	582.0	0.1753
	3322.	582.1	0.1753
	3323.	582.2	0.1757
	3324.	582.3	0.1757
	3325.	582.5	0.1761
	3326.	582.7	0.1762
	3327.	582.9	0.1762
	3328.	583.0	0.1757
	3329.	583.2	0.1757
	3330.	583.3	0.1755
	3331.	583.3	0.1755
	3332.	583.5	0.1761
	3333.	583.7	0.1762
	3334.	583.8	0.1765
	3335.	584.1	0.1767
	3336.	584.2	0.1765
	3337.	584.4	0.1763
	3338.	584.6	0.1763
	3339.	584.7	0.1765
	3340.	584.9	0.1764
	3341.	585.1	0.1763
	3342.	585.2	0.1763
	3343.	585.4	0.1763
	3344.	585.6	0.1764
	3345.	585.9	0.1763
	3346.	586.0	0.1765
	3347.	586.2	0.1768
	3348.	586.4	0.1766
	3349.	586.5	0.1768
	3350.	586.8	0.1765
	3351.	587.0	0.1766
	3352.	587.1	0.1764
	3353.	587.3	0.1763
	3354.	587.5	0.1763
	3355.	587.7	0.1762
	3356.	587.8	0.1763
	3357.	588.0	0.1764
	3358.	588.1	0.1764
	3359.	588.2	0.1766
	3360.	588.4	0.1765
	3361.	588.6	0.1766
	3362.	588.7	0.1765
	3363.	588.9	0.1767
	3364.	589.1	0.1769
	3365.	589.3	0.1769
	3366.	589.5	0.1766
	3367.	589.6	0.1767
	3368.	589.8	0.1768
	3369.	590.0	0.1767
	3370.	590.2	0.1766
	3371.	590.4	0.1765
	3372.	590.5	0.1766
	3373.	590.6	0.1767
	3374.	590.7	0.1767
	3375.	590.9	0.1769
	3376.	591.0	0.1768
	3377.	591.2	0.1767
	3378.	591.3	0.1768
	3379.	591.4	0.1772
	3380.	591.6	0.1775
	3381.	591.8	0.1775
	3382.	591.9	0.1776
	3383.	592.1	0.1775
	3384.	592.3	0.1775
	3385.	592.4	0.1776
	3386.	592.6	0.1775
	3387.	592.7	0.1773
	3388.	592.9	0.1771
	3389.	593.0	0.1773
	3390.	593.2	0.1772
	3391.	593.3	0.1773
	3392.	593.4	0.1773
	3393.	593.6	0.1772
	3394.	593.8	0.1770
	3395.	593.9	0.1774
	3396.	594.1	0.1780
	3397.	594.4	0.1783
	3398.	594.5	0.1786
	3399.	594.7	0.1788
	3400.	594.9	0.1785
	3401.	595.1	0.1784
	3402.	595.3	0.1779
	3403.	595.5	0.1778
	3404.	595.6	0.1774
	3405.	595.9	0.1771
	3406.	596.0	0.1772
	3407.	596.2	0.1771
	3408.	596.4	0.1769
	3409.	596.7	0.1771
	3410.	596.8	0.1768
	3411.	597.0	0.1770
	3412.	597.1	0.1769
	3413.	597.2	0.1767
	3414.	597.3	0.1768
	3415.	597.5	0.1766
	3416.	597.7	0.1769
	3417.	597.9	0.1771
	3418.	598.1	0.1772
	3419.	598.2	0.1774
	3420.	598.4	0.1774
	3421.	598.5	0.1774
	3422.	598.7	0.1776
	3423.	598.9	0.1776
	3424.	599.0	0.1778
	3425.	599.2	0.1783
	3426.	599.3	0.1787
	3427.	599.5	0.1788
	3428.	599.7	0.1788
	3429.	599.8	0.1787
	3430.	599.9	0.1786
	3431.	600.1	0.1784
	3432.	600.3	0.1783
	3433.	600.5	0.1781
	3434.	600.7	0.1781
	3435.	600.7	0.1782
	3436.	600.9	0.1780
	3437.	601.1	0.1780
	3438.	601.3	0.1781
	3439.	601.5	0.1781
	3440.	601.6	0.1779
	3441.	601.8	0.1776
	3442.	602.0	0.1778
	3443.	602.2	0.1779
	3444.	602.4	0.1779
	3445.	602.6	0.1780
	3446.	602.8	0.1780
	3447.	602.9	0.1780
	3448.	603.0	0.1780
	3449.	603.2	0.1783
	3450.	603.3	0.1785
	3451.	603.5	0.1785
	3452.	603.6	0.1789
	3453.	603.9	0.1793
	3454.	604.0	0.1793
	3455.	604.2	0.1793
	3456.	604.5	0.1794
	3457.	604.6	0.1796
	3458.	604.7	0.1800
	3459.	604.8	0.1803
	3460.	605.0	0.1807
	3461.	605.1	0.1812
	3462.	605.3	0.1817
	3463.	605.4	0.1821
	3464.	605.6	0.1819
	3465.	605.8	0.1818
	3466.	606.0	0.1815
	3467.	606.2	0.1814
	3468.	606.3	0.1814
	3469.	606.5	0.1812
	3470.	606.7	0.1811
	3471.	606.9	0.1809
	3472.	607.0	0.1811
	3473.	607.2	0.1807
	3474.	607.3	0.1807
	3475.	607.5	0.1806
	3476.	607.6	0.1804
	3477.	607.8	0.1805
	3478.	607.9	0.1807
	3479.	608.1	0.1803
	3480.	608.2	0.1803
	3481.	608.5	0.1799
	3482.	608.6	0.1801
	3483.	608.9	0.1805
	3484.	609.0	0.1804
	3485.	609.2	0.1801
	3486.	609.3	0.1804
	3487.	609.5	0.1805
	3488.	609.7	0.1803
	3489.	609.8	0.1802
	3490.	610.1	0.1803
	3491.	610.3	0.1799
	3492.	610.4	0.1800
	3493.	610.6	0.1803
	3494.	610.7	0.1801
	3495.	610.9	0.1798
	3496.	611.1	0.1797
	3497.	611.2	0.1798
	3498.	611.3	0.1796
	3499.	611.5	0.1799
	3500.	611.7	0.1800
	3501.	611.8	0.1800
	3502.	612.0	0.1802
	3503.	612.1	0.1803
	3504.	612.2	0.1804
	3505.	612.3	0.1805
	3506.	612.5	0.1807
	3507.	612.8	0.1808
	3508.	612.9	0.1809
	3509.	613.0	0.1810
	3510.	613.1	0.1807
	3511.	613.3	0.1808
	3512.	613.4	0.1804
	3513.	613.6	0.1804
	3514.	613.9	0.1801
	3515.	614.2	0.1803
	3516.	614.3	0.1803
	3517.	614.5	0.1804
	3518.	614.6	0.1805
	3519.	614.8	0.1807
	3520.	614.9	0.1812
	3521.	615.1	0.1808
	3522.	615.2	0.1806
	3523.	615.4	0.1806
	3524.	615.6	0.1808
	3525.	615.7	0.1812
	3526.	615.9	0.1811
	3527.	616.1	0.1814
	3528.	616.3	0.1814
	3529.	616.5	0.1814
	3530.	616.7	0.1814
	3531.	616.9	0.1815
	3532.	617.0	0.1814
	3533.	617.2	0.1810
	3534.	617.3	0.1809
	3535.	617.5	0.1809
	3536.	617.6	0.1808
	3537.	617.8	0.1805
	3538.	618.0	0.1806
	3539.	618.2	0.1806
	3540.	618.3	0.1805
	3541.	618.4	0.1807
	3542.	618.5	0.1804
	3543.	618.7	0.1804
	3544.	619.0	0.1804
	3545.	619.1	0.1808
	3546.	619.3	0.1810
	3547.	619.5	0.1811
	3548.	619.6	0.1810
	3549.	619.8	0.1809
	3550.	620.0	0.1808
	3551.	620.2	0.1807
	3552.	620.3	0.1808
	3553.	620.5	0.1804
	3554.	620.7	0.1804
	3555.	620.8	0.1799
	3556.	621.1	0.1798
	3557.	621.3	0.1803
	3558.	621.5	0.1805
	3559.	621.6	0.1807
	3560.	621.8	0.1809
	3561.	621.9	0.1809
	3562.	622.0	0.1808
	3563.	622.1	0.1810
	3564.	622.3	0.1812
	3565.	622.5	0.1814
	3566.	622.6	0.1814
	3567.	622.7	0.1812
	3568.	622.9	0.1811
	3569.	623.0	0.1809
	3570.	623.2	0.1808
	3571.	623.4	0.1808
	3572.	623.5	0.1807
	3573.	623.7	0.1809
	3574.	623.9	0.1808
	3575.	624.1	0.1807
	3576.	624.3	0.1806
	3577.	624.5	0.1810
	3578.	624.6	0.1811
	3579.	624.7	0.1813
	3580.	625.0	0.1816
	3581.	625.1	0.1816
	3582.	625.3	0.1816
	3583.	625.4	0.1819
	3584.	625.7	0.1823
	3585.	625.8	0.1825
	3586.	625.9	0.1826
	3587.	626.1	0.1823
	3588.	626.2	0.1823
	3589.	626.4	0.1821
	3590.	626.6	0.1816
	3591.	626.7	0.1814
	3592.	626.9	0.1815
	3593.	627.0	0.1817
	3594.	627.2	0.1816
	3595.	627.4	0.1819
	3596.	627.7	0.1820
	3597.	627.9	0.1820
	3598.	628.0	0.1820
	3599.	628.1	0.1820
	3600.	628.3	0.1820
	3601.	628.6	0.1821
	3602.	628.8	0.1817
	3603.	629.0	0.1817
	3604.	629.2	0.1818
	3605.	629.3	0.1822
	3606.	629.5	0.1819
	3607.	629.6	0.1816
	3608.	629.7	0.1813
	3609.	629.9	0.1811
	3610.	630.1	0.1812
	3611.	630.2	0.1809
	3612.	630.4	0.1810
	3613.	630.6	0.1806
	3614.	630.7	0.1811
	3615.	630.8	0.1811
	3616.	631.0	0.1810
	3617.	631.2	0.1811
	3618.	631.4	0.1810
	3619.	631.5	0.1811
	3620.	631.6	0.1809
	3621.	631.8	0.1809
	3622.	632.0	0.1808
	3623.	632.0	0.1809
	3624.	632.2	0.1805
	3625.	632.4	0.1805
	3626.	632.6	0.1808
	3627.	632.8	0.1808
	3628.	632.9	0.1804
	3629.	633.1	0.1807
	3630.	633.2	0.1806
	3631.	633.3	0.1808
	3632.	633.5	0.1809
	3633.	633.8	0.1807
	3634.	633.9	0.1809
	3635.	634.1	0.1809
	3636.	634.3	0.1806
	3637.	634.5	0.1808
	3638.	634.7	0.1805
	3639.	634.9	0.1803
	3640.	635.1	0.1804
	3641.	635.3	0.1802
	3642.	635.5	0.1806
	3643.	635.7	0.1808
	3644.	635.8	0.1811
	3645.	635.9	0.1808
	3646.	636.1	0.1811
	3647.	636.4	0.1812
	3648.	636.5	0.1808
	3649.	636.6	0.1813
	3650.	636.8	0.1814
	3651.	636.9	0.1811
	3652.	637.1	0.1813
	3653.	637.2	0.1810
	3654.	637.5	0.1810
	3655.	637.7	0.1810
	3656.	637.8	0.1809
	3657.	638.0	0.1809
	3658.	638.2	0.1807
	3659.	638.3	0.1809
	3660.	638.5	0.1810
	3661.	638.7	0.1810
	3662.	638.9	0.1812
	3663.	638.9	0.1809
	3664.	639.1	0.1812
	3665.	639.2	0.1815
	3666.	639.3	0.1815
	3667.	639.5	0.1811
	3668.	639.6	0.1812
	3669.	639.8	0.1809
	3670.	639.9	0.1813
	3671.	640.0	0.1813
	3672.	640.1	0.1816
	3673.	640.3	0.1816
	3674.	640.5	0.1816
	3675.	640.7	0.1816
	3676.	640.9	0.1816
	3677.	641.1	0.1819
	3678.	641.3	0.1820
	3679.	641.6	0.1821
	3680.	641.8	0.1821
	3681.	641.9	0.1823
	3682.	642.2	0.1822
	3683.	642.4	0.1819
	3684.	642.6	0.1819
	3685.	642.9	0.1819
	3686.	643.0	0.1818
	3687.	643.2	0.1818
	3688.	643.3	0.1819
	3689.	643.4	0.1821
	3690.	643.6	0.1819
	3691.	643.8	0.1817
	3692.	643.9	0.1819
	3693.	644.0	0.1824
	3694.	644.2	0.1834
	3695.	644.3	0.1852
	3696.	644.5	0.1870
	3697.	644.6	0.1886
	3698.	644.7	0.1894
	3699.	644.9	0.1901
	3700.	645.1	0.1908
	3701.	645.3	0.1915
	3702.	645.5	0.1919
	3703.	645.7	0.1923
	3704.	645.9	0.1927
	3705.	646.0	0.1925
	3706.	646.2	0.1925
	3707.	646.4	0.1927
	3708.	646.5	0.1925
	3709.	646.7	0.1920
	3710.	646.9	0.1917
	3711.	647.1	0.1916
	3712.	647.2	0.1919
	3713.	647.4	0.1918
	3714.	647.5	0.1919
	3715.	647.7	0.1920
	3716.	647.9	0.1916
	3717.	648.1	0.1928
	3718.	648.2	0.1934
	3719.	648.4	0.1939
	3720.	648.5	0.1941
	3721.	648.7	0.1945
	3722.	648.9	0.1945
	3723.	649.1	0.1949
	3724.	649.3	0.1944
	3725.	649.5	0.1944
	3726.	649.6	0.1946
	3727.	649.7	0.1944
	3728.	649.9	0.1944
	3729.	650.1	0.1944
	3730.	650.3	0.1944
	3731.	650.4	0.1941
	3732.	650.5	0.1938
	3733.	650.6	0.1938
	3734.	650.7	0.1934
	3735.	650.9	0.1931
	3736.	651.2	0.1933
	3737.	651.4	0.1930
	3738.	651.5	0.1931
	3739.	651.7	0.1931
	3740.	651.8	0.1925
	3741.	652.0	0.1926
	3742.	652.3	0.1926
	3743.	652.4	0.1925
	3744.	652.6	0.1927
	3745.	652.8	0.1926
	3746.	652.9	0.1927
	3747.	653.0	0.1929
	3748.	653.2	0.1924
	3749.	653.5	0.1925
	3750.	653.6	0.1930
	3751.	653.8	0.1929
	3752.	654.0	0.1927
	3753.	654.3	0.1923
	3754.	654.3	0.1921
	3755.	654.5	0.1917
	3756.	654.7	0.1913
	3757.	654.9	0.1912
	3758.	655.0	0.1912
	3759.	655.2	0.1912
	3760.	655.4	0.1913
	3761.	655.6	0.1917
	3762.	655.7	0.1917
	3763.	655.8	0.1917
	3764.	656.0	0.1921
	3765.	656.1	0.1923
	3766.	656.3	0.1919
	3767.	656.4	0.1923
	3768.	656.5	0.1921
	3769.	656.7	0.1920
	3770.	656.9	0.1913
	3771.	657.2	0.1911
	3772.	657.2	0.1909
	3773.	657.4	0.1910
	3774.	657.6	0.1908
	3775.	657.7	0.1904
	3776.	657.8	0.1902
	3777.	658.0	0.1902
	3778.	658.2	0.1904
	3779.	658.3	0.1901
	3780.	658.5	0.1901
	3781.	658.7	0.1901
	3782.	659.0	0.1900
	3783.	659.2	0.1897
	3784.	659.4	0.1897
	3785.	659.7	0.1896
	3786.	659.7	0.1894
	3787.	659.9	0.1894
	3788.	660.1	0.1893
	3789.	660.2	0.1891
	3790.	660.4	0.1892
	3791.	660.6	0.1891
	3792.	660.8	0.1891
	3793.	661.0	0.1891
	3794.	661.1	0.1889
	3795.	661.3	0.1888
	3796.	661.4	0.1887
	3797.	661.5	0.1887
	3798.	661.7	0.1887
	3799.	661.9	0.1885
	3800.	662.0	0.1886
	3801.	662.1	0.1886
	3802.	662.4	0.1886
	3803.	662.6	0.1886
	3804.	662.6	0.1886
	3805.	662.7	0.1885
	3806.	662.9	0.1887
	3807.	663.1	0.1888
	3808.	663.2	0.1886
	3809.	663.5	0.1886
	3810.	663.6	0.1886
	3811.	663.9	0.1887
	3812.	664.0	0.1886
	3813.	664.1	0.1887
	3814.	664.2	0.1887
	3815.	664.4	0.1887
	3816.	664.5	0.1888
	3817.	664.7	0.1888
	3818.	664.8	0.1886
	3819.	665.0	0.1885
	3820.	665.2	0.1884
	3821.	665.4	0.1882
	3822.	665.6	0.1880
	3823.	665.9	0.1878
	3824.	666.1	0.1877
	3825.	666.3	0.1875
	3826.	666.5	0.1876
	3827.	666.6	0.1878
	3828.	666.8	0.1877
	3829.	667.0	0.1877
	3830.	667.2	0.1879
	3831.	667.3	0.1880
	3832.	667.5	0.1882
	3833.	667.6	0.1882
	3834.	667.8	0.1880
	3835.	667.9	0.1879
	3836.	668.0	0.1882
	3837.	668.1	0.1881
	3838.	668.3	0.1880
	3839.	668.4	0.1879
	3840.	668.6	0.1880
	3841.	668.8	0.1877
	3842.	668.9	0.1876
	3843.	669.1	0.1875
	3844.	669.3	0.1876
	3845.	669.5	0.1877
	3846.	669.7	0.1875
	3847.	669.9	0.1873
	3848.	670.1	0.1874
	3849.	670.3	0.1873
	3850.	670.4	0.1871
	3851.	670.6	0.1871
	3852.	670.7	0.1871
	3853.	671.0	0.1870
	3854.	671.1	0.1870
	3855.	671.2	0.1869
	3856.	671.4	0.1867
	3857.	671.6	0.1865
	3858.	671.7	0.1865
	3859.	671.8	0.1866
	3860.	672.1	0.1865
	3861.	672.3	0.1866
	3862.	672.6	0.1868
	3863.	672.7	0.1866
	3864.	672.9	0.1866
	3865.	673.1	0.1866
	3866.	673.2	0.1865
	3867.	673.4	0.1865
	3868.	673.7	0.1863
	3869.	673.8	0.1862
	3870.	673.9	0.1862
	3871.	674.1	0.1861
	3872.	674.3	0.1860
	3873.	674.4	0.1860
	3874.	674.5	0.1858
	3875.	674.7	0.1860
	3876.	674.8	0.1860
	3877.	675.0	0.1861
	3878.	675.2	0.1862
	3879.	675.3	0.1860
	3880.	675.4	0.1861
	3881.	675.5	0.1862
	3882.	675.7	0.1860
	3883.	676.0	0.1862
	3884.	676.0	0.1863
	3885.	676.3	0.1865
	3886.	676.4	0.1862
	3887.	676.5	0.1864
	3888.	676.7	0.1865
	3889.	676.9	0.1865
	3890.	677.1	0.1867
	3891.	677.3	0.1865
	3892.	677.6	0.1866
	3893.	677.7	0.1865
	3894.	677.8	0.1863
	3895.	677.9	0.1865
	3896.	678.1	0.1863
	3897.	678.4	0.1866
	3898.	678.5	0.1865
	3899.	678.6	0.1866
	3900.	678.8	0.1864
	3901.	679.0	0.1868
	3902.	679.2	0.1866
	3903.	679.5	0.1869
	3904.	679.6	0.1870
	3905.	679.8	0.1872
	3906.	680.0	0.1871
	3907.	680.2	0.1869
	3908.	680.4	0.1870
	3909.	680.5	0.1871
	3910.	680.7	0.1870
	3911.	680.9	0.1870
	3912.	681.0	0.1867
	3913.	681.2	0.1866
	3914.	681.2	0.1869
	3915.	681.4	0.1866
	3916.	681.6	0.1867
	3917.	681.6	0.1866
	3918.	681.8	0.1866
	3919.	681.9	0.1866
	3920.	682.1	0.1868
	3921.	682.3	0.1867
	3922.	682.5	0.1870
	3923.	682.7	0.1869
	3924.	682.7	0.1869
	3925.	682.9	0.1869
	3926.	683.2	0.1868
	3927.	683.3	0.1868
	3928.	683.4	0.1867
	3929.	683.6	0.1867
	3930.	683.7	0.1865
	3931.	683.9	0.1866
	3932.	684.1	0.1865
	3933.	684.4	0.1868
	3934.	684.5	0.1866
	3935.	684.7	0.1865
	3936.	684.9	0.1865
	3937.	685.0	0.1866
	3938.	685.2	0.1866
	3939.	685.3	0.1867
	3940.	685.5	0.1869
	3941.	685.7	0.1866
	3942.	685.9	0.1866
	3943.	686.0	0.1866
	3944.	686.1	0.1865
	3945.	686.3	0.1866
	3946.	686.5	0.1866
	3947.	686.7	0.1867
	3948.	686.8	0.1867
	3949.	687.1	0.1867
	3950.	687.2	0.1866
	3951.	687.3	0.1868
	3952.	687.5	0.1870
	3953.	687.7	0.1868
	3954.	687.8	0.1871
	3955.	688.1	0.1869
	3956.	688.2	0.1869
	3957.	688.5	0.1870
	3958.	688.6	0.1871
	3959.	688.7	0.1870
	3960.	688.8	0.1867
	3961.	689.1	0.1868
	3962.	689.3	0.1867
	3963.	689.4	0.1868
	3964.	689.6	0.1869
	3965.	689.8	0.1869
	3966.	690.0	0.1868
	3967.	690.2	0.1867
	3968.	690.3	0.1868
	3969.	690.5	0.1871
	3970.	690.7	0.1873
	3971.	690.7	0.1873
	3972.	690.8	0.1873
	3973.	691.1	0.1875
	3974.	691.2	0.1873
	3975.	691.4	0.1871
	3976.	691.6	0.1868
	3977.	691.7	0.1868
	3978.	691.9	0.1867
	3979.	692.1	0.1868
	3980.	692.3	0.1866
	3981.	692.5	0.1867
	3982.	692.7	0.1869
	3983.	692.9	0.1871
	3984.	693.2	0.1869
	3985.	693.2	0.1869
	3986.	693.3	0.1868
	3987.	693.4	0.1869
	3988.	693.6	0.1870
	3989.	693.8	0.1871
	3990.	694.0	0.1871
	3991.	694.1	0.1871
	3992.	694.3	0.1871
	3993.	694.4	0.1869
	3994.	694.6	0.1869
	3995.	694.8	0.1870
	3996.	694.9	0.1871
	3997.	695.1	0.1870
	3998.	695.2	0.1872
	3999.	695.4	0.1871
	4000.	695.5	0.1872
	4001.	695.7	0.1873
	4002.	695.8	0.1873
	4003.	696.0	0.1877
	4004.	696.2	0.1877
	4005.	696.3	0.1877
	4006.	696.5	0.1881
	4007.	696.6	0.1877
	4008.	696.8	0.1878
	4009.	697.0	0.1879
	4010.	697.1	0.1881
	4011.	697.4	0.1878
	4012.	697.6	0.1877
	4013.	697.7	0.1877
	4014.	697.9	0.1877
	4015.	698.0	0.1876
	4016.	698.1	0.1875
	4017.	698.3	0.1876
	4018.	698.5	0.1879
	4019.	698.7	0.1877
	4020.	698.9	0.1878
	4021.	699.1	0.1881
	4022.	699.3	0.1881
	4023.	699.5	0.1881
	4024.	699.7	0.1881
	4025.	699.9	0.1879
	4026.	700.0	0.1878
	4027.	700.3	0.1879
	4028.	700.5	0.1879
	4029.	700.7	0.1878
	4030.	700.8	0.1878
	4031.	700.9	0.1880
	4032.	701.1	0.1881
	4033.	701.3	0.1882
	4034.	701.5	0.1883
	4035.	701.6	0.1879
	4036.	701.7	0.1878
	4037.	701.9	0.1880
	4038.	702.0	0.1878
	4039.	702.1	0.1876
	4040.	702.3	0.1878
	4041.	702.4	0.1881
	4042.	702.7	0.1886
	4043.	702.8	0.1893
	4044.	702.9	0.1895
	4045.	703.1	0.1897
	4046.	703.3	0.1897
	4047.	703.4	0.1894
	4048.	703.5	0.1891
	4049.	703.7	0.1892
	4050.	703.8	0.1891
	4051.	704.0	0.1889
	4052.	704.2	0.1888
	4053.	704.3	0.1887
	4054.	704.5	0.1887
	4055.	704.6	0.1887
	4056.	704.8	0.1885
	4057.	705.0	0.1890
	4058.	705.2	0.1896
	4059.	705.4	0.1897
	4060.	705.5	0.1901
	4061.	705.7	0.1902
	4062.	705.9	0.1902
	4063.	706.1	0.1900
	4064.	706.4	0.1899
	4065.	706.5	0.1899
	4066.	706.8	0.1896
	4067.	707.0	0.1897
	4068.	707.2	0.1897
	4069.	707.2	0.1900
	4070.	707.4	0.1900
	4071.	707.5	0.1901
	4072.	707.7	0.1902
	4073.	707.8	0.1903
	4074.	708.0	0.1902
	4075.	708.2	0.1898
	4076.	708.4	0.1897
	4077.	708.5	0.1893
	4078.	708.6	0.1892
	4079.	708.8	0.1894
	4080.	708.9	0.1895
	4081.	709.1	0.1894
	4082.	709.3	0.1893
	4083.	709.4	0.1890
	4084.	709.6	0.1889
	4085.	709.7	0.1889
	4086.	709.9	0.1890
	4087.	710.1	0.1894
	4088.	710.2	0.1896
	4089.	710.4	0.1894
	4090.	710.7	0.1893
	4091.	710.9	0.1889
	4092.	711.0	0.1886
	4093.	711.1	0.1887
	4094.	711.4	0.1887
	4095.	711.6	0.1888
	4096.	711.7	0.1888
	4097.	711.8	0.1889
	4098.	711.9	0.1888
	4099.	712.1	0.1889
	4100.	712.2	0.1887
	4101.	712.4	0.1886
	4102.	712.5	0.1883
	4103.	712.7	0.1884
	4104.	712.9	0.1884
	4105.	713.2	0.1886
	4106.	713.3	0.1886
	4107.	713.5	0.1889
	4108.	713.7	0.1887
	4109.	713.8	0.1888
	4110.	713.9	0.1888
	4111.	714.1	0.1890
	4112.	714.2	0.1887
	4113.	714.4	0.1887
	4114.	714.6	0.1888
	4115.	714.8	0.1889
	4116.	714.9	0.1888
	4117.	715.1	0.1887
	4118.	715.2	0.1886
	4119.	715.4	0.1886
	4120.	715.6	0.1883
	4121.	715.7	0.1884
	4122.	715.9	0.1883
	4123.	716.0	0.1881
	4124.	716.2	0.1880
	4125.	716.4	0.1882
	4126.	716.6	0.1883
	4127.	716.8	0.1885
	4128.	717.1	0.1884
	4129.	717.3	0.1886
	4130.	717.5	0.1887
	4131.	717.6	0.1885
	4132.	717.9	0.1887
	4133.	718.0	0.1886
	4134.	718.1	0.1886
	4135.	718.2	0.1885
	4136.	718.4	0.1883
	4137.	718.6	0.1881
	4138.	718.8	0.1880
	4139.	719.0	0.1881
	4140.	719.2	0.1880
	4141.	719.3	0.1879
	4142.	719.5	0.1877
	4143.	719.6	0.1876
	4144.	719.8	0.1877
	4145.	719.9	0.1877
	4146.	720.0	0.1878
	4147.	720.2	0.1878
	4148.	720.3	0.1876
	4149.	720.4	0.1878
	4150.	720.5	0.1879
	4151.	720.7	0.1879
	4152.	720.9	0.1881
	4153.	721.1	0.1880
	4154.	721.3	0.1880
	4155.	721.5	0.1881
	4156.	721.7	0.1880
	4157.	721.9	0.1880
	4158.	722.0	0.1877
	4159.	722.2	0.1879
	4160.	722.4	0.1879
	4161.	722.5	0.1878
	4162.	722.6	0.1879
	4163.	722.8	0.1880
	4164.	722.9	0.1879
	4165.	723.1	0.1877
	4166.	723.3	0.1880
	4167.	723.5	0.1879
	4168.	723.7	0.1879
	4169.	723.9	0.1881
	4170.	724.1	0.1881
	4171.	724.3	0.1879
	4172.	724.4	0.1881
	4173.	724.6	0.1880
	4174.	724.8	0.1880
	4175.	724.9	0.1879
	4176.	725.1	0.1882
	4177.	725.3	0.1877
	4178.	725.5	0.1876
	4179.	725.6	0.1877
	4180.	725.7	0.1875
	4181.	725.9	0.1878
	4182.	726.1	0.1877
	4183.	726.2	0.1878
	4184.	726.4	0.1880
	4185.	726.5	0.1881
	4186.	726.7	0.1880
	4187.	726.9	0.1878
	4188.	727.1	0.1877
	4189.	727.3	0.1877
	4190.	727.5	0.1877
	4191.	727.6	0.1875
	4192.	727.7	0.1874
	4193.	727.9	0.1876
	4194.	728.1	0.1876
	4195.	728.2	0.1876
	4196.	728.4	0.1875
	4197.	728.5	0.1875
	4198.	728.7	0.1874
	4199.	728.9	0.1874
	4200.	729.2	0.1871
	4201.	729.3	0.1873
	4202.	729.5	0.1873
	4203.	729.7	0.1873
	4204.	729.8	0.1872
	4205.	730.0	0.1870
	4206.	730.2	0.1871
	4207.	730.3	0.1873
	4208.	730.5	0.1874
	4209.	730.6	0.1873
	4210.	730.8	0.1873
	4211.	730.9	0.1876
	4212.	731.1	0.1876
	4213.	731.1	0.1874
	4214.	731.3	0.1872
	4215.	731.4	0.1873
	4216.	731.6	0.1877
	4217.	731.8	0.1875
	4218.	732.1	0.1876
	4219.	732.2	0.1879
	4220.	732.3	0.1879
	4221.	732.5	0.1879
	4222.	732.7	0.1879
	4223.	732.9	0.1878
	4224.	733.1	0.1879
	4225.	733.3	0.1878
	4226.	733.4	0.1881
	4227.	733.5	0.1881
	4228.	733.7	0.1880
	4229.	733.9	0.1882
	4230.	734.0	0.1879
	4231.	734.3	0.1880
	4232.	734.6	0.1881
	4233.	734.7	0.1879
	4234.	734.9	0.1881
	4235.	735.0	0.1883
	4236.	735.1	0.1883
	4237.	735.3	0.1884
	4238.	735.5	0.1881
	4239.	735.7	0.1880
	4240.	735.9	0.1881
	4241.	736.0	0.1880
	4242.	736.1	0.1879
	4243.	736.3	0.1880
	4244.	736.3	0.1878
	4245.	736.6	0.1877
	4246.	736.7	0.1875
	4247.	736.8	0.1879
	4248.	737.0	0.1879
	4249.	737.1	0.1880
	4250.	737.4	0.1880
	4251.	737.5	0.1882
	4252.	737.6	0.1880
	4253.	737.9	0.1880
	4254.	738.0	0.1879
	4255.	738.2	0.1878
	4256.	738.3	0.1879
	4257.	738.5	0.1879
	4258.	738.7	0.1879
	4259.	738.9	0.1882
	4260.	739.0	0.1881
	4261.	739.2	0.1883
	4262.	739.3	0.1881
	4263.	739.6	0.1877
	4264.	739.7	0.1874
	4265.	739.9	0.1875
	4266.	740.1	0.1875
	4267.	740.2	0.1876
	4268.	740.4	0.1875
	4269.	740.6	0.1877
	4270.	740.7	0.1878
	4271.	741.0	0.1880
	4272.	741.2	0.1879
	4273.	741.2	0.1879
	4274.	741.4	0.1879
	4275.	741.7	0.1877
	4276.	741.8	0.1879
	4277.	741.9	0.1878
	4278.	742.0	0.1877
	4279.	742.3	0.1880
	4280.	742.5	0.1881
	4281.	742.6	0.1879
	4282.	742.6	0.1879
	4283.	742.8	0.1880
	4284.	743.0	0.1879
	4285.	743.1	0.1883
	4286.	743.3	0.1887
	4287.	743.5	0.1887
	4288.	743.7	0.1892
	4289.	743.9	0.1893
	4290.	744.1	0.1889
	4291.	744.3	0.1892
	4292.	744.5	0.1889
	4293.	744.7	0.1888
	4294.	744.8	0.1887
	4295.	745.0	0.1887
	4296.	745.1	0.1888
	4297.	745.3	0.1890
	4298.	745.5	0.1887
	4299.	745.6	0.1888
	4300.	745.7	0.1888
	4301.	745.8	0.1886
	4302.	746.0	0.1887
	4303.	746.2	0.1889
	4304.	746.4	0.1890
	4305.	746.6	0.1891
	4306.	746.8	0.1888
	4307.	747.0	0.1888
	4308.	747.2	0.1896
	4309.	747.3	0.1905
	4310.	747.5	0.1908
	4311.	747.6	0.1909
	4312.	747.7	0.1910
	4313.	747.9	0.1913
	4314.	748.0	0.1930
	4315.	748.2	0.1945
	4316.	748.3	0.1961
	4317.	748.3	0.1969
	4318.	748.6	0.1975
	4319.	748.9	0.1980
	4320.	749.1	0.1983
	4321.	749.3	0.1987
	4322.	749.5	0.1992
	4323.	749.7	0.1994
	4324.	749.9	0.1997
	4325.	750.0	0.1999
	4326.	750.1	0.2002
	4327.	750.3	0.2001
	4328.	750.6	0.2001
	4329.	750.7	0.2001
	4330.	750.8	0.1999
	4331.	751.0	0.1995
	4332.	751.1	0.1999
	4333.	751.3	0.1999
	4334.	751.4	0.2000
	4335.	751.6	0.2002
	4336.	751.8	0.2006
	4337.	752.0	0.2007
	4338.	752.1	0.2007
	4339.	752.2	0.2008
	4340.	752.3	0.2006
	4341.	752.4	0.2005
	4342.	752.6	0.2005
	4343.	752.8	0.2006
	4344.	753.0	0.2005
	4345.	753.2	0.2005
	4346.	753.4	0.1999
	4347.	753.6	0.2001
	4348.	753.7	0.2001
	4349.	753.8	0.2004
	4350.	754.0	0.2006
	4351.	754.1	0.2007
	4352.	754.3	0.2006
	4353.	754.5	0.2006
	4354.	754.7	0.2003
	4355.	754.9	0.2003
	4356.	755.0	0.2000
	4357.	755.2	0.1999
	4358.	755.4	0.2001
	4359.	755.6	0.2006
	4360.	755.8	0.2005
	4361.	756.1	0.2009
	4362.	756.2	0.2011
	4363.	756.5	0.2012
	4364.	756.5	0.2012
	4365.	756.6	0.2011
	4366.	756.8	0.2010
	4367.	756.9	0.2007
	4368.	757.1	0.2005
	4369.	757.3	0.2010
	4370.	757.5	0.2008
	4371.	757.6	0.2005
	4372.	757.8	0.2000
	4373.	758.0	0.1996
	4374.	758.1	0.1997
	4375.	758.3	0.1996
	4376.	758.6	0.1996
	4377.	758.7	0.1997
	4378.	758.9	0.1999
	4379.	759.0	0.2002
	4380.	759.1	0.2001
	4381.	759.3	0.2000
	4382.	759.5	0.1999
	4383.	759.7	0.1995
	4384.	759.8	0.1993
	4385.	760.0	0.1993
	4386.	760.1	0.1998
	4387.	760.4	0.2001
	4388.	760.5	0.2003
	4389.	760.6	0.2005
	4390.	760.8	0.2004
	4391.	761.0	0.2001
	4392.	761.1	0.2002
	4393.	761.3	0.2001
	4394.	761.5	0.2005
	4395.	761.5	0.2008
	4396.	761.8	0.2010
	4397.	761.9	0.2010
	4398.	762.1	0.2013
	4399.	762.2	0.2017
	4400.	762.3	0.2016
	4401.	762.5	0.2015
	4402.	762.6	0.2016
	4403.	762.9	0.2017
	4404.	763.0	0.2019
	4405.	763.3	0.2016
	4406.	763.5	0.2018
	4407.	763.5	0.2019
	4408.	763.7	0.2019
	4409.	763.9	0.2019
	4410.	764.1	0.2021
	4411.	764.3	0.2023
	4412.	764.5	0.2027
	4413.	764.6	0.2028
	4414.	764.8	0.2026
	4415.	765.0	0.2026
	4416.	765.2	0.2027
	4417.	765.3	0.2030
	4418.	765.5	0.2033
	4419.	765.7	0.2032
	4420.	765.8	0.2033
	4421.	766.0	0.2032
	4422.	766.2	0.2032
	4423.	766.3	0.2034
	4424.	766.4	0.2036
	4425.	766.6	0.2035
	4426.	766.7	0.2034
	4427.	766.9	0.2033
	4428.	767.2	0.2033
	4429.	767.3	0.2033
	4430.	767.4	0.2035
	4431.	767.7	0.2036
	4432.	767.9	0.2036
	4433.	768.0	0.2034
	4434.	768.2	0.2037
	4435.	768.3	0.2041
	4436.	768.5	0.2050
	4437.	768.6	0.2054
	4438.	768.8	0.2055
	4439.	768.9	0.2060
	4440.	769.1	0.2062
	4441.	769.3	0.2063
	4442.	769.5	0.2063
	4443.	769.6	0.2070
	4444.	769.7	0.2075
	4445.	769.9	0.2075
	4446.	770.1	0.2076
	4447.	770.1	0.2080
	4448.	770.4	0.2082
	4449.	770.6	0.2088
	4450.	770.7	0.2088
	4451.	770.9	0.2090
	4452.	771.1	0.2102
	4453.	771.4	0.2122
	4454.	771.5	0.2147
	4455.	771.6	0.2182
	4456.	771.7	0.2215
	4457.	771.9	0.2243
	4458.	772.1	0.2273
	4459.	772.2	0.2303
	4460.	772.4	0.2335
	4461.	772.6	0.2366
	4462.	772.7	0.2394
	4463.	772.9	0.2414
	4464.	773.1	0.2432
	4465.	773.3	0.2443
	4466.	773.5	0.2449
	4467.	773.7	0.2452
	4468.	773.9	0.2457
	4469.	774.0	0.2459
	4470.	774.2	0.2458
	4471.	774.4	0.2461
	4472.	774.5	0.2458
	4473.	774.6	0.2457
	4474.	774.9	0.2457
	4475.	775.0	0.2453
	4476.	775.2	0.2452
	4477.	775.3	0.2450
	4478.	775.5	0.2451
	4479.	775.6	0.2448
	4480.	775.8	0.2444
	4481.	776.0	0.2446
	4482.	776.1	0.2444
	4483.	776.3	0.2442
	4484.	776.5	0.2440
	4485.	776.6	0.2441
	4486.	776.8	0.2441
	4487.	777.0	0.2440
	4488.	777.1	0.2441
	4489.	777.3	0.2442
	4490.	777.4	0.2440
	4491.	777.6	0.2439
	4492.	777.7	0.2437
	4493.	777.9	0.2434
	4494.	778.1	0.2434
	4495.	778.3	0.2438
	4496.	778.5	0.2439
	4497.	778.7	0.2440
	4498.	778.8	0.2444
	4499.	778.9	0.2449
	4500.	779.0	0.2452
	4501.	779.1	0.2454
	4502.	779.4	0.2451
	4503.	779.6	0.2450
	4504.	779.7	0.2450
	4505.	779.9	0.2447
	4506.	780.2	0.2445
	4507.	780.3	0.2442
	4508.	780.5	0.2438
	4509.	780.7	0.2434
	4510.	780.8	0.2434
	4511.	781.0	0.2434
	4512.	781.1	0.2431
	4513.	781.4	0.2431
	4514.	781.5	0.2432
	4515.	781.7	0.2434
	4516.	781.8	0.2439
	4517.	782.0	0.2443
	4518.	782.2	0.2446
	4519.	782.3	0.2449
	4520.	782.4	0.2451
	4521.	782.5	0.2451
	4522.	782.6	0.2445
	4523.	782.8	0.2444
	4524.	783.0	0.2440
	4525.	783.2	0.2439
	4526.	783.3	0.2438
	4527.	783.5	0.2442
	4528.	783.6	0.2442
	4529.	783.9	0.2441
	4530.	784.1	0.2442
	4531.	784.2	0.2446
	4532.	784.4	0.2448
	4533.	784.6	0.2444
	4534.	784.9	0.2443
	4535.	785.0	0.2443
	4536.	785.1	0.2441
	4537.	785.2	0.2441
	4538.	785.4	0.2442
	4539.	785.6	0.2443
	4540.	785.7	0.2442
	4541.	785.9	0.2440
	4542.	786.1	0.2437
	4543.	786.3	0.2433
	4544.	786.4	0.2430
	4545.	786.6	0.2429
	4546.	786.8	0.2427
	4547.	786.8	0.2429
	4548.	787.0	0.2429
	4549.	787.2	0.2427
	4550.	787.4	0.2427
	4551.	787.6	0.2428
	4552.	787.8	0.2426
	4553.	787.9	0.2430
	4554.	788.1	0.2425
	4555.	788.4	0.2430
	4556.	788.6	0.2430
	4557.	788.7	0.2426
	4558.	789.0	0.2425
	4559.	789.1	0.2429
	4560.	789.3	0.2431
	4561.	789.4	0.2429
	4562.	789.6	0.2429
	4563.	789.8	0.2429
	4564.	789.9	0.2430
	4565.	790.0	0.2430
	4566.	790.2	0.2427
	4567.	790.3	0.2429
	4568.	790.5	0.2428
	4569.	790.6	0.2428
	4570.	790.7	0.2431
	4571.	790.8	0.2430
	4572.	791.0	0.2427
	4573.	791.3	0.2427
	4574.	791.5	0.2428
	4575.	791.6	0.2427
	4576.	791.7	0.2423
	4577.	791.9	0.2421
	4578.	792.1	0.2421
	4579.	792.2	0.2422
	4580.	792.4	0.2424
	4581.	792.7	0.2425
	4582.	792.8	0.2423
	4583.	793.0	0.2423
	4584.	793.2	0.2421
	4585.	793.4	0.2421
	4586.	793.6	0.2420
	4587.	793.7	0.2420
	4588.	793.9	0.2420
	4589.	794.1	0.2425
	4590.	794.3	0.2426
	4591.	794.4	0.2426
	4592.	794.6	0.2428
	4593.	794.8	0.2428
	4594.	794.9	0.2426
	4595.	795.1	0.2428
	4596.	795.2	0.2427
	4597.	795.4	0.2427
	4598.	795.5	0.2428
	4599.	795.6	0.2430
	4600.	795.7	0.2428
	4601.	795.8	0.2427
	4602.	796.0	0.2427
	4603.	796.2	0.2430
	4604.	796.3	0.2430
	4605.	796.6	0.2433
	4606.	796.7	0.2431
	4607.	796.9	0.2433
	4608.	797.0	0.2428
	4609.	797.1	0.2430
	4610.	797.2	0.2430
	4611.	797.6	0.2431
	4612.	797.7	0.2428
	4613.	797.9	0.2431
	4614.	798.1	0.2429
	4615.	798.3	0.2431
	4616.	798.5	0.2426
	4617.	798.6	0.2425
	4618.	798.8	0.2426
	4619.	798.9	0.2428
	4620.	799.1	0.2425
	4621.	799.4	0.2425
	4622.	799.5	0.2427
	4623.	799.7	0.2428
	4624.	799.9	0.2430
	4625.	800.1	0.2432
	4626.	800.3	0.2432
	4627.	800.3	0.2433
	4628.	800.6	0.2437
	4629.	800.8	0.2435
	4630.	800.9	0.2432
	4631.	801.1	0.2431
	4632.	801.1	0.2430
	4633.	801.3	0.2433
	4634.	801.4	0.2435
	4635.	801.6	0.2434
	4636.	801.7	0.2432
	4637.	801.9	0.2434
	4638.	802.2	0.2436
	4639.	802.4	0.2452
	4640.	802.5	0.2472
	4641.	802.6	0.2486
	4642.	802.8	0.2494
	4643.	803.0	0.2503
	4644.	803.2	0.2512
	4645.	803.3	0.2515
	4646.	803.5	0.2522
	4647.	803.7	0.2525
	4648.	803.9	0.2527
	4649.	804.1	0.2530
	4650.	804.2	0.2532
	4651.	804.4	0.2533
	4652.	804.5	0.2534
	4653.	804.7	0.2533
	4654.	804.9	0.2532
	4655.	805.1	0.2532
	4656.	805.2	0.2531
	4657.	805.4	0.2532
	4658.	805.6	0.2532
	4659.	805.7	0.2530
	4660.	805.8	0.2531
	4661.	806.1	0.2533
	4662.	806.2	0.2532
	4663.	806.3	0.2535
	4664.	806.4	0.2537
	4665.	806.6	0.2537
	4666.	806.7	0.2533
	4667.	806.9	0.2531
	4668.	807.1	0.2527
	4669.	807.3	0.2524
	4670.	807.4	0.2524
	4671.	807.6	0.2523
	4672.	807.7	0.2521
	4673.	807.9	0.2523
	4674.	808.1	0.2521
	4675.	808.2	0.2520
	4676.	808.5	0.2521
	4677.	808.6	0.2522
	4678.	808.8	0.2525
	4679.	809.0	0.2523
	4680.	809.2	0.2523
	4681.	809.4	0.2523
	4682.	809.5	0.2524
	4683.	809.7	0.2526
	4684.	809.9	0.2526
	4685.	810.0	0.2525
	4686.	810.2	0.2524
	4687.	810.4	0.2524
	4688.	810.5	0.2521
	4689.	810.6	0.2517
	4690.	810.8	0.2517
	4691.	811.0	0.2519
	4692.	811.1	0.2516
	4693.	811.3	0.2514
	4694.	811.5	0.2515
	4695.	811.6	0.2514
	4696.	811.7	0.2514
	4697.	811.8	0.2514
	4698.	812.0	0.2512
	4699.	812.1	0.2513
	4700.	812.3	0.2513
	4701.	812.4	0.2512
	4702.	812.7	0.2511
	4703.	812.9	0.2512
	4704.	813.0	0.2512
	4705.	813.2	0.2514
	4706.	813.4	0.2513
	4707.	813.7	0.2512
	4708.	813.8	0.2512
	4709.	813.9	0.2511
	4710.	814.2	0.2512
	4711.	814.4	0.2512
	4712.	814.5	0.2513
	4713.	814.6	0.2515
	4714.	814.8	0.2513
	4715.	814.9	0.2514
	4716.	815.1	0.2514
	4717.	815.3	0.2513
	4718.	815.4	0.2512
	4719.	815.7	0.2512
	4720.	815.8	0.2509
	4721.	816.0	0.2509
	4722.	816.1	0.2509
	4723.	816.2	0.2511
	4724.	816.4	0.2511
	4725.	816.6	0.2509
	4726.	816.8	0.2506
	4727.	816.9	0.2507
	4728.	817.0	0.2504
	4729.	817.1	0.2503
	4730.	817.3	0.2505
	4731.	817.5	0.2503
	4732.	817.6	0.2503
	4733.	817.9	0.2504
	4734.	818.0	0.2504
	4735.	818.2	0.2506
	4736.	818.4	0.2509
	4737.	818.5	0.2510
	4738.	818.7	0.2508
	4739.	819.0	0.2508
	4740.	819.1	0.2509
	4741.	819.3	0.2508
	4742.	819.4	0.2511
	4743.	819.6	0.2514
	4744.	819.8	0.2513
	4745.	819.9	0.2513
	4746.	820.1	0.2512
	4747.	820.2	0.2513
	4748.	820.4	0.2514
	4749.	820.7	0.2512
	4750.	820.8	0.2511
	4751.	820.9	0.2512
	4752.	821.1	0.2511
	4753.	821.3	0.2511
	4754.	821.4	0.2512
	4755.	821.5	0.2511
	4756.	821.7	0.2511
	4757.	821.9	0.2509
	4758.	822.1	0.2509
	4759.	822.3	0.2511
	4760.	822.5	0.2513
	4761.	822.7	0.2511
	4762.	822.8	0.2512
	4763.	823.0	0.2510
	4764.	823.1	0.2511
	4765.	823.3	0.2512
	4766.	823.3	0.2510
	4767.	823.6	0.2509
	4768.	823.8	0.2509
	4769.	824.0	0.2511
	4770.	824.1	0.2510
	4771.	824.4	0.2508
	4772.	824.5	0.2508
	4773.	824.7	0.2508
	4774.	824.9	0.2509
	4775.	825.0	0.2509
	4776.	825.1	0.2509
	4777.	825.2	0.2509
	4778.	825.4	0.2508
	4779.	825.6	0.2510
	4780.	825.7	0.2508
	4781.	825.9	0.2508
	4782.	826.1	0.2509
	4783.	826.3	0.2510
	4784.	826.4	0.2509
	4785.	826.5	0.2511
	4786.	826.7	0.2510
	4787.	826.9	0.2510
	4788.	827.1	0.2510
	4789.	827.2	0.2509
	4790.	827.4	0.2511
	4791.	827.6	0.2508
	4792.	827.8	0.2511
	4793.	828.0	0.2512
	4794.	828.1	0.2512
	4795.	828.3	0.2511
	4796.	828.5	0.2512
	4797.	828.7	0.2514
	4798.	828.9	0.2513
	4799.	829.1	0.2512
	4800.	829.2	0.2514
	4801.	829.4	0.2512
	4802.	829.4	0.2512
	4803.	829.6	0.2512
	4804.	829.8	0.2513
	4805.	829.9	0.2513
	4806.	830.0	0.2513
	4807.	830.2	0.2511
	4808.	830.3	0.2511
	4809.	830.5	0.2512
	4810.	830.8	0.2511
	4811.	830.9	0.2512
	4812.	831.1	0.2513
	4813.	831.3	0.2512
	4814.	831.4	0.2513
	4815.	831.5	0.2513
	4816.	831.7	0.2514
	4817.	831.9	0.2516
	4818.	832.1	0.2514
	4819.	832.3	0.2516
	4820.	832.5	0.2517
	4821.	832.6	0.2517
	4822.	832.8	0.2516
	4823.	832.9	0.2518
	4824.	833.1	0.2519
	4825.	833.2	0.2520
	4826.	833.4	0.2523
	4827.	833.6	0.2524
	4828.	833.6	0.2523
	4829.	833.9	0.2522
	4830.	834.0	0.2519
	4831.	834.2	0.2519
	4832.	834.4	0.2520
	4833.	834.6	0.2519
	4834.	834.7	0.2519
	4835.	835.0	0.2518
	4836.	835.0	0.2517
	4837.	835.3	0.2516
	4838.	835.5	0.2517
	4839.	835.7	0.2518
	4840.	836.0	0.2516
	4841.	836.1	0.2516
	4842.	836.2	0.2516
	4843.	836.4	0.2515
	4844.	836.5	0.2516
	4845.	836.6	0.2514
	4846.	836.7	0.2518
	4847.	837.0	0.2519
	4848.	837.1	0.2522
	4849.	837.3	0.2522
	4850.	837.5	0.2525
	4851.	837.6	0.2525
	4852.	837.8	0.2524
	4853.	837.9	0.2526
	4854.	838.1	0.2522
	4855.	838.2	0.2523
	4856.	838.4	0.2522
	4857.	838.6	0.2525
	4858.	838.7	0.2528
	4859.	838.9	0.2528
	4860.	839.2	0.2529
	4861.	839.3	0.2528
	4862.	839.5	0.2526
	4863.	839.6	0.2529
	4864.	839.7	0.2532
	4865.	839.9	0.2530
	4866.	840.0	0.2530
	4867.	840.2	0.2529
	4868.	840.4	0.2529
	4869.	840.6	0.2530
	4870.	840.8	0.2534
	4871.	840.9	0.2533
	4872.	841.1	0.2533
	4873.	841.4	0.2533
	4874.	841.4	0.2531
	4875.	841.6	0.2532
	4876.	841.9	0.2528
	4877.	842.0	0.2529
	4878.	842.2	0.2531
	4879.	842.4	0.2534
	4880.	842.5	0.2532
	4881.	842.8	0.2532
	4882.	842.8	0.2531
	4883.	843.0	0.2534
	4884.	843.2	0.2538
	4885.	843.3	0.2534
	4886.	843.4	0.2533
	4887.	843.6	0.2533
	4888.	843.8	0.2532
	4889.	844.0	0.2534
	4890.	844.1	0.2535
	4891.	844.5	0.2536
	4892.	844.5	0.2536
	4893.	844.7	0.2536
	4894.	844.8	0.2538
	4895.	845.0	0.2540
	4896.	845.1	0.2539
	4897.	845.3	0.2539
	4898.	845.5	0.2543
	4899.	845.6	0.2539
	4900.	845.8	0.2539
	4901.	846.0	0.2538
	4902.	846.1	0.2538
	4903.	846.3	0.2538
	4904.	846.5	0.2540
	4905.	846.6	0.2542
	4906.	846.9	0.2545
	4907.	847.0	0.2544
	4908.	847.2	0.2546
	4909.	847.3	0.2546
	4910.	847.5	0.2545
	4911.	847.7	0.2541
	4912.	847.8	0.2541
	4913.	848.0	0.2542
	4914.	848.2	0.2540
	4915.	848.4	0.2540
	4916.	848.5	0.2540
	4917.	848.7	0.2540
	4918.	848.9	0.2540
	4919.	849.0	0.2540
	4920.	849.3	0.2542
	4921.	849.3	0.2541
	4922.	849.5	0.2539
	4923.	849.8	0.2541
	4924.	849.9	0.2541
	4925.	850.0	0.2541
	4926.	850.1	0.2540
	4927.	850.3	0.2542
	4928.	850.5	0.2546
	4929.	850.5	0.2554
	4930.	850.8	0.2558
	4931.	850.9	0.2560
	4932.	851.0	0.2560
	4933.	851.2	0.2560
	4934.	851.4	0.2560
	4935.	851.6	0.2561
	4936.	851.8	0.2559
	4937.	852.0	0.2559
	4938.	852.2	0.2558
	4939.	852.3	0.2554
	4940.	852.5	0.2555
	4941.	852.7	0.2555
	4942.	852.9	0.2554
	4943.	853.0	0.2553
	4944.	853.2	0.2554
	4945.	853.3	0.2553
	4946.	853.5	0.2551
	4947.	853.6	0.2551
	4948.	853.8	0.2550
	4949.	854.0	0.2551
	4950.	854.2	0.2554
	4951.	854.4	0.2560
	4952.	854.5	0.2561
	4953.	854.7	0.2563
	4954.	854.9	0.2565
	4955.	855.0	0.2565
	4956.	855.1	0.2572
	4957.	855.2	0.2585
	4958.	855.4	0.2596
	4959.	855.5	0.2604
	4960.	855.7	0.2611
	4961.	855.9	0.2616
	4962.	856.1	0.2620
	4963.	856.2	0.2627
	4964.	856.4	0.2629
	4965.	856.5	0.2632
	4966.	856.7	0.2635
	4967.	856.9	0.2639
	4968.	857.2	0.2642
	4969.	857.4	0.2649
	4970.	857.5	0.2652
	4971.	857.7	0.2654
	4972.	857.9	0.2657
	4973.	858.0	0.2659
	4974.	858.2	0.2662
	4975.	858.3	0.2661
	4976.	858.6	0.2661
	4977.	858.6	0.2657
	4978.	858.8	0.2656
	4979.	858.9	0.2671
	4980.	859.1	0.2690
	4981.	859.2	0.2706
	4982.	859.4	0.2714
	4983.	859.6	0.2722
	4984.	859.6	0.2733
	4985.	859.8	0.2741
	4986.	860.0	0.2745
	4987.	860.2	0.2747
	4988.	860.3	0.2752
	4989.	860.5	0.2753
	4990.	860.8	0.2755
	4991.	861.0	0.2753
	4992.	861.2	0.2753
	4993.	861.4	0.2755
	4994.	861.6	0.2756
	4995.	861.7	0.2756
	4996.	861.8	0.2757
	4997.	862.0	0.2760
	4998.	862.1	0.2760
	4999.	862.2	0.2752
	5000.	862.4	0.2751
	5001.	862.6	0.2759
	5002.	862.8	0.2767
	5003.	863.0	0.2773
	5004.	863.2	0.2781
	5005.	863.3	0.2789
	5006.	863.4	0.2801
	5007.	863.6	0.2812
	5008.	863.8	0.2819
	5009.	864.0	0.2824
	5010.	864.2	0.2826
	5011.	864.4	0.2827
	5012.	864.6	0.2834
	5013.	864.7	0.2840
	5014.	864.8	0.2838
	5015.	864.9	0.2837
	5016.	865.1	0.2833
	5017.	865.3	0.2831
	5018.	865.4	0.2828
	5019.	865.6	0.2826
	5020.	865.8	0.2821
	5021.	865.9	0.2816
	5022.	866.0	0.2812
	5023.	866.3	0.2809
	5024.	866.5	0.2808
	5025.	866.5	0.2806
	5026.	866.8	0.2802
	5027.	866.9	0.2802
	5028.	867.1	0.2801
	5029.	867.3	0.2802
	5030.	867.6	0.2801
	5031.	867.7	0.2802
	5032.	867.8	0.2799
	5033.	867.9	0.2798
	5034.	868.0	0.2796
	5035.	868.3	0.2797
	5036.	868.5	0.2794
	5037.	868.7	0.2793
	5038.	868.9	0.2795
	5039.	869.1	0.2799
	5040.	869.3	0.2796
	5041.	869.4	0.2798
	5042.	869.5	0.2796
	5043.	869.6	0.2800
	5044.	869.8	0.2805
	5045.	869.9	0.2806
	5046.	870.1	0.2803
	5047.	870.2	0.2801
	5048.	870.3	0.2799
	5049.	870.5	0.2798
	5050.	870.6	0.2798
	5051.	870.8	0.2796
	5052.	871.0	0.2799
	5053.	871.2	0.2802
	5054.	871.5	0.2802
	5055.	871.7	0.2802
	5056.	871.9	0.2804
	5057.	872.1	0.2804
	5058.	872.2	0.2801
	5059.	872.3	0.2801
	5060.	872.4	0.2800
	5061.	872.6	0.2800
	5062.	872.8	0.2803
	5063.	873.0	0.2804
	5064.	873.1	0.2805
	5065.	873.3	0.2804
	5066.	873.5	0.2802
	5067.	873.7	0.2803
	5068.	873.8	0.2805
	5069.	873.9	0.2806
	5070.	874.0	0.2810
	5071.	874.2	0.2807
	5072.	874.5	0.2812
	5073.	874.6	0.2813
	5074.	874.8	0.2815
	5075.	875.0	0.2813
	5076.	875.1	0.2815
	5077.	875.3	0.2811
	5078.	875.4	0.2808
	5079.	875.7	0.2803
	5080.	875.8	0.2803
	5081.	875.9	0.2801
	5082.	876.1	0.2799
	5083.	876.3	0.2799
	5084.	876.5	0.2796
	5085.	876.6	0.2799
	5086.	876.7	0.2802
	5087.	876.8	0.2806
	5088.	877.0	0.2807
	5089.	877.2	0.2806
	5090.	877.5	0.2806
	5091.	877.6	0.2803
	5092.	877.7	0.2801
	5093.	878.0	0.2802
	5094.	878.1	0.2801
	5095.	878.3	0.2802
	5096.	878.5	0.2802
	5097.	878.7	0.2801
	5098.	878.8	0.2800
	5099.	879.1	0.2798
	5100.	879.3	0.2799
	5101.	879.5	0.2801
	5102.	879.7	0.2800
	5103.	879.7	0.2800
	5104.	879.8	0.2796
	5105.	879.9	0.2801
	5106.	880.1	0.2802
	5107.	880.3	0.2801
	5108.	880.4	0.2800
	5109.	880.6	0.2797
	5110.	880.8	0.2796
	5111.	881.0	0.2796
	5112.	881.2	0.2796
	5113.	881.4	0.2794
	5114.	881.5	0.2795
	5115.	881.6	0.2800
	5116.	881.8	0.2802
	5117.	882.0	0.2802
	5118.	882.2	0.2801
	5119.	882.4	0.2801
	5120.	882.5	0.2800
	5121.	882.6	0.2800
	5122.	882.8	0.2798
	5123.	883.0	0.2797
	5124.	883.1	0.2793
	5125.	883.2	0.2793
	5126.	883.4	0.2793
	5127.	883.6	0.2791
	5128.	883.7	0.2791
	5129.	883.9	0.2792
	5130.	884.0	0.2795
	5131.	884.2	0.2794
	5132.	884.3	0.2800
	5133.	884.6	0.2800
	5134.	884.7	0.2802
	5135.	885.0	0.2801
	5136.	885.2	0.2805
	5137.	885.3	0.2812
	5138.	885.4	0.2814
	5139.	885.6	0.2816
	5140.	885.7	0.2812
	5141.	886.0	0.2809
	5142.	886.2	0.2808
	5143.	886.3	0.2803
	5144.	886.4	0.2802
	5145.	886.6	0.2800
	5146.	886.7	0.2799
	5147.	886.8	0.2800
	5148.	887.1	0.2798
	5149.	887.2	0.2800
	5150.	887.3	0.2799
	5151.	887.6	0.2802
	5152.	887.7	0.2802
	5153.	887.8	0.2805
	5154.	888.0	0.2809
	5155.	888.2	0.2812
	5156.	888.4	0.2809
	5157.	888.5	0.2815
	5158.	888.7	0.2821
	5159.	888.9	0.2823
	5160.	888.9	0.2823
	5161.	889.1	0.2822
	5162.	889.3	0.2823
	5163.	889.5	0.2823
	5164.	889.7	0.2821
	5165.	889.8	0.2820
	5166.	890.0	0.2819
	5167.	890.2	0.2821
	5168.	890.3	0.2820
	5169.	890.6	0.2818
	5170.	890.8	0.2823
	5171.	890.9	0.2823
	5172.	891.1	0.2823
	5173.	891.3	0.2821
	5174.	891.4	0.2822
	5175.	891.6	0.2824
	5176.	891.7	0.2827
	5177.	891.9	0.2829
	5178.	892.1	0.2832
	5179.	892.3	0.2834
	5180.	892.4	0.2836
	5181.	892.5	0.2834
	5182.	892.6	0.2838
	5183.	892.8	0.2847
	5184.	892.9	0.2851
	5185.	893.2	0.2852
	5186.	893.4	0.2850
	5187.	893.5	0.2848
	5188.	893.8	0.2846
	5189.	893.9	0.2847
	5190.	894.1	0.2853
	5191.	894.3	0.2854
	5192.	894.5	0.2853
	5193.	894.6	0.2853
	5194.	894.8	0.2856
	5195.	895.0	0.2858
	5196.	895.1	0.2859
	5197.	895.2	0.2857
	5198.	895.4	0.2857
	5199.	895.6	0.2858
	5200.	895.7	0.2860
	5201.	895.9	0.2859
	5202.	896.1	0.2860
	5203.	896.2	0.2865
	5204.	896.4	0.2867
	5205.	896.5	0.2868
	5206.	896.6	0.2866
	5207.	896.8	0.2867
	5208.	897.1	0.2871
	5209.	897.2	0.2872
	5210.	897.4	0.2871
	5211.	897.6	0.2874
	5212.	897.8	0.2873
	5213.	898.0	0.2872
	5214.	898.2	0.2875
	5215.	898.4	0.2875
	5216.	898.4	0.2874
	5217.	898.6	0.2875
	5218.	898.8	0.2876
	5219.	899.0	0.2876
	5220.	899.2	0.2875
	5221.	899.3	0.2875
	5222.	899.4	0.2877
	5223.	899.6	0.2880
	5224.	899.7	0.2882
	5225.	899.9	0.2882
